
time,ax,ay,az,wx,wy,wz,
0.003,-0.72,0.10,0.21,-0.04,-0.03,-0.04,
0.004,-0.72,0.10,0.21,-0.03,-0.05,-0.04,
0.004,-0.72,0.10,0.21,-0.01,-0.08,-0.03,
0.004,-0.72,0.10,0.21,0.00,-0.11,-0.02,
0.004,-0.73,0.08,0.38,0.00,-0.11,-0.02,
0.005,-0.73,0.08,0.38,0.02,-0.14,-0.01,
0.005,-0.68,0.05,0.51,0.02,-0.14,-0.01,
0.005,-0.68,0.05,0.51,0.04,-0.17,-0.01,
0.005,-0.68,0.05,0.51,0.06,-0.20,-0.00,
0.008,-0.60,0.05,0.62,0.06,-0.20,-0.00,
0.008,-0.60,0.05,0.62,0.08,-0.23,-0.00,
0.009,-0.60,0.05,0.62,0.10,-0.25,0.00,
0.011,-0.60,0.05,0.62,0.13,-0.28,0.00,
0.011,-0.50,0.01,0.70,0.13,-0.28,0.00,
0.015,-0.50,0.01,0.70,0.16,-0.29,0.01,
0.016,-0.42,-0.01,0.77,0.16,-0.29,0.01,
0.016,-0.42,-0.01,0.77,0.18,-0.31,0.01,
0.019,-0.42,-0.01,0.77,0.21,-0.32,0.02,
0.021,-0.42,-0.01,0.77,0.25,-0.33,0.04,
0.022,-0.35,-0.05,0.80,0.25,-0.33,0.04,
0.024,-0.35,-0.05,0.80,0.28,-0.34,0.05,
0.025,-0.34,0.01,0.88,0.28,-0.34,0.05,
0.026,-0.34,0.01,0.88,0.32,-0.34,0.06,
0.03,-0.34,0.01,0.88,0.35,-0.33,0.07,
0.03,-0.34,0.01,0.88,0.39,-0.33,0.07,
0.031,-0.30,0.00,0.80,0.39,-0.33,0.07,
0.034,-0.30,0.00,0.80,0.42,-0.32,0.08,
0.038,-0.30,0.00,0.80,0.46,-0.31,0.08,
0.038,-0.22,-0.03,0.79,0.46,-0.31,0.08,
0.038,-0.22,-0.03,0.79,0.50,-0.30,0.08,
0.041,-0.09,-0.08,0.80,0.50,-0.30,0.08,
0.041,-0.09,-0.08,0.80,0.53,-0.29,0.08,
0.043,-0.09,-0.08,0.80,0.57,-0.28,0.07,
0.049,-0.09,-0.08,0.80,0.60,-0.27,0.06,
0.049,0.07,-0.08,0.80,0.60,-0.27,0.06,
0.05,0.07,-0.08,0.80,0.63,-0.26,0.05,
0.051,0.18,-0.12,0.78,0.63,-0.26,0.05,
0.051,0.18,-0.12,0.78,0.66,-0.25,0.05,
0.053,0.18,-0.12,0.78,0.69,-0.24,0.04,
0.055,0.22,-0.15,0.73,0.69,-0.24,0.04,
0.056,0.22,-0.15,0.73,0.72,-0.24,0.02,
0.057,0.22,-0.15,0.73,0.75,-0.24,0.01,
0.061,0.26,-0.15,0.68,0.75,-0.24,0.01,
0.061,0.26,-0.15,0.68,0.77,-0.24,-0.00,
0.063,0.26,-0.15,0.68,0.79,-0.23,-0.01,
0.064,0.24,-0.15,0.59,0.79,-0.23,-0.01,
0.064,0.24,-0.15,0.59,0.81,-0.23,-0.03,
0.067,0.24,-0.15,0.59,0.82,-0.23,-0.04,
0.069,0.24,-0.15,0.59,0.84,-0.22,-0.05,
0.07,0.23,-0.10,0.43,0.84,-0.22,-0.05,
0.072,0.23,-0.10,0.43,0.85,-0.21,-0.06,
0.074,0.17,-0.06,0.24,0.85,-0.21,-0.06,
0.075,0.17,-0.06,0.24,0.86,-0.20,-0.07,
0.077,0.17,-0.06,0.24,0.87,-0.19,-0.08,
0.08,0.17,-0.06,0.24,0.87,-0.18,-0.08,
0.08,0.12,-0.02,0.04,0.87,-0.18,-0.08,
0.081,0.12,-0.02,0.04,0.87,-0.17,-0.08,
0.085,0.04,0.03,-0.15,0.87,-0.17,-0.08,
0.085,0.04,0.03,-0.15,0.87,-0.17,-0.08,
0.086,0.04,0.03,-0.15,0.87,-0.17,-0.08,
0.089,0.04,0.03,-0.15,0.86,-0.16,-0.08,
0.09,-0.05,0.10,-0.32,0.86,-0.16,-0.08,
0.091,-0.05,0.10,-0.32,0.85,-0.16,-0.08,
0.094,-0.12,0.15,-0.47,0.85,-0.16,-0.08,
0.095,-0.12,0.15,-0.47,0.84,-0.16,-0.07,
0.096,-0.12,0.15,-0.47,0.82,-0.17,-0.07,
0.099,-0.23,0.22,-0.62,0.82,-0.17,-0.07,
0.099,-0.23,0.22,-0.62,0.80,-0.17,-0.06,
0.101,-0.23,0.22,-0.62,0.78,-0.18,-0.06,
0.105,-0.23,0.22,-0.62,0.75,-0.19,-0.05,
0.105,-0.29,0.26,-0.76,0.75,-0.19,-0.05,
0.106,-0.29,0.26,-0.76,0.73,-0.20,-0.05,
0.109,-0.29,0.26,-0.76,0.69,-0.21,-0.04,
0.109,-0.40,0.29,-0.87,0.69,-0.21,-0.04,
0.11,-0.40,0.29,-0.87,0.66,-0.22,-0.04,
0.114,-0.40,0.29,-0.87,0.63,-0.23,-0.04,
0.114,-0.44,0.31,-0.91,0.63,-0.23,-0.04,
0.116,-0.44,0.31,-0.91,0.59,-0.24,-0.04,
0.119,-0.44,0.31,-0.91,0.55,-0.26,-0.04,
0.12,-0.46,0.30,-0.86,0.55,-0.26,-0.04,
0.12,-0.46,0.30,-0.86,0.52,-0.27,-0.04,
0.123,-0.46,0.30,-0.86,0.48,-0.27,-0.04,
0.123,-0.41,0.31,-0.81,0.48,-0.27,-0.04,
0.125,-0.41,0.31,-0.81,0.44,-0.28,-0.04,
0.128,-0.32,0.28,-0.85,0.44,-0.28,-0.04,
0.128,-0.32,0.28,-0.85,0.41,-0.27,-0.04,
0.13,-0.32,0.28,-0.85,0.38,-0.27,-0.04,
0.133,-0.22,0.20,-0.87,0.38,-0.27,-0.04,
0.134,-0.22,0.20,-0.87,0.35,-0.26,-0.04,
0.134,-0.22,0.20,-0.87,0.32,-0.25,-0.04,
0.138,-0.15,0.12,-0.82,0.32,-0.25,-0.04,
0.138,-0.15,0.12,-0.82,0.30,-0.25,-0.04,
0.139,-0.15,0.12,-0.82,0.28,-0.24,-0.04,
0.142,-0.15,0.12,-0.82,0.26,-0.23,-0.04,
0.143,-0.09,0.08,-0.72,0.26,-0.23,-0.04,
0.151,-0.09,0.08,-0.72,0.25,-0.22,-0.04,
0.151,-0.05,0.12,-0.61,0.25,-0.22,-0.04,
0.152,-0.05,0.12,-0.61,0.23,-0.21,-0.03,
0.152,-0.05,0.12,-0.61,0.22,-0.20,-0.03,
0.153,-0.04,0.17,-0.55,0.22,-0.20,-0.03,
0.155,-0.04,0.17,-0.55,0.21,-0.19,-0.03,
0.155,-0.04,0.17,-0.55,0.20,-0.18,-0.02,
0.164,-0.02,0.23,-0.50,0.20,-0.18,-0.02,
0.164,-0.02,0.23,-0.50,0.19,-0.17,-0.01,
0.164,-0.02,0.23,-0.50,0.18,-0.15,-0.01,
0.165,-0.02,0.23,-0.50,0.18,-0.14,-0.00,
0.165,0.00,0.21,-0.43,0.18,-0.14,-0.00,
0.165,0.00,0.21,-0.43,0.17,-0.13,-0.00,
0.167,0.00,0.21,-0.43,0.17,-0.13,0.00,
0.167,0.03,0.14,-0.28,0.17,-0.13,0.00,
0.169,0.03,0.14,-0.28,0.16,-0.12,0.01,
0.172,0.03,0.14,-0.28,0.16,-0.11,0.01,
0.172,0.08,0.04,-0.10,0.16,-0.11,0.01,
0.173,0.08,0.04,-0.10,0.16,-0.11,0.02,
0.176,0.08,0.04,-0.10,0.17,-0.10,0.03,
0.176,0.13,-0.06,0.02,0.17,-0.10,0.03,
0.179,0.13,-0.06,0.02,0.17,-0.09,0.04,
0.181,0.13,-0.06,0.02,0.17,-0.09,0.04,
0.181,0.16,-0.09,0.13,0.17,-0.09,0.04,
0.184,0.16,-0.09,0.13,0.18,-0.08,0.05,
0.187,0.10,-0.14,0.25,0.18,-0.08,0.05,
0.187,0.10,-0.14,0.25,0.19,-0.08,0.06,
0.188,0.10,-0.14,0.25,0.20,-0.07,0.07,
0.191,0.05,-0.14,0.41,0.20,-0.07,0.07,
0.191,0.05,-0.14,0.41,0.21,-0.07,0.08,
0.194,0.05,-0.14,0.41,0.23,-0.07,0.08,
0.196,-0.03,-0.11,0.54,0.23,-0.07,0.08,
0.197,-0.03,-0.11,0.54,0.24,-0.07,0.09,
0.199,-0.03,-0.11,0.54,0.26,-0.07,0.09,
0.2,-0.03,-0.11,0.54,0.27,-0.07,0.09,
0.201,-0.02,-0.04,0.59,0.27,-0.07,0.09,
0.203,-0.02,-0.04,0.59,0.29,-0.07,0.08,
0.205,-0.02,-0.04,0.59,0.30,-0.08,0.08,
0.205,0.01,-0.01,0.57,0.30,-0.08,0.08,
0.208,0.01,-0.01,0.57,0.32,-0.08,0.07,
0.21,0.07,0.01,0.59,0.32,-0.08,0.07,
0.21,0.07,0.01,0.59,0.33,-0.09,0.06,
0.212,0.07,0.01,0.59,0.35,-0.10,0.04,
0.215,0.07,0.01,0.59,0.36,-0.11,0.03,
0.216,0.13,-0.02,0.66,0.36,-0.11,0.03,
0.217,0.13,-0.02,0.66,0.38,-0.13,0.01,
0.221,0.23,-0.08,0.69,0.38,-0.13,0.01,
0.221,0.23,-0.08,0.69,0.40,-0.14,-0.01,
0.222,0.23,-0.08,0.69,0.41,-0.15,-0.03,
0.225,0.23,-0.08,0.69,0.43,-0.16,-0.05,
0.226,0.35,-0.13,0.63,0.43,-0.16,-0.05,
0.227,0.35,-0.13,0.63,0.45,-0.17,-0.07,
0.229,0.35,-0.13,0.63,0.46,-0.18,-0.09,
0.23,0.44,-0.24,0.53,0.46,-0.18,-0.09,
0.231,0.44,-0.24,0.53,0.48,-0.19,-0.11,
0.234,0.44,-0.24,0.53,0.49,-0.21,-0.13,
0.235,0.49,-0.31,0.44,0.49,-0.21,-0.13,
0.237,0.49,-0.31,0.44,0.51,-0.22,-0.15,
0.239,0.47,-0.39,0.43,0.51,-0.22,-0.15,
0.239,0.47,-0.39,0.43,0.53,-0.24,-0.17,
0.242,0.47,-0.39,0.43,0.55,-0.26,-0.18,
0.245,0.45,-0.40,0.46,0.55,-0.26,-0.18,
0.245,0.45,-0.40,0.46,0.56,-0.27,-0.20,
0.252,0.45,-0.40,0.46,0.58,-0.28,-0.21,
0.252,0.45,-0.40,0.46,0.60,-0.29,-0.22,
0.253,0.49,-0.41,0.49,0.60,-0.29,-0.22,
0.253,0.49,-0.41,0.49,0.62,-0.30,-0.22,
0.254,0.56,-0.43,0.52,0.62,-0.30,-0.22,
0.255,0.56,-0.43,0.52,0.64,-0.31,-0.22,
0.257,0.56,-0.43,0.52,0.66,-0.31,-0.21,
0.259,0.56,-0.43,0.52,0.67,-0.32,-0.20,
0.259,0.56,-0.49,0.49,0.67,-0.32,-0.20,
0.262,0.56,-0.49,0.49,0.69,-0.32,-0.20,
0.263,0.52,-0.56,0.44,0.69,-0.32,-0.20,
0.263,0.52,-0.56,0.44,0.70,-0.33,-0.19,
0.266,0.52,-0.56,0.44,0.71,-0.34,-0.19,
0.268,0.49,-0.60,0.37,0.71,-0.34,-0.19,
0.269,0.49,-0.60,0.37,0.72,-0.34,-0.19,
0.271,0.49,-0.60,0.37,0.73,-0.35,-0.19,
0.273,0.49,-0.60,0.37,0.74,-0.36,-0.19,
0.274,0.46,-0.69,0.26,0.74,-0.36,-0.19,
0.275,0.46,-0.69,0.26,0.74,-0.37,-0.19,
0.279,0.45,-0.72,0.15,0.74,-0.37,-0.19,
0.279,0.45,-0.72,0.15,0.74,-0.38,-0.20,
0.28,0.45,-0.72,0.15,0.74,-0.39,-0.21,
0.284,0.45,-0.72,0.15,0.73,-0.40,-0.22,
0.284,0.45,-0.73,0.00,0.73,-0.40,-0.22,
0.285,0.45,-0.73,0.00,0.73,-0.42,-0.23,
0.287,0.45,-0.73,0.00,0.72,-0.43,-0.25,
0.288,0.37,-0.61,-0.10,0.72,-0.43,-0.25,
0.289,0.37,-0.61,-0.10,0.72,-0.45,-0.27,
0.292,0.27,-0.44,-0.13,0.72,-0.45,-0.27,
0.293,0.27,-0.44,-0.13,0.71,-0.48,-0.29,
0.294,0.27,-0.44,-0.13,0.71,-0.50,-0.31,
0.298,0.27,-0.44,-0.13,0.71,-0.52,-0.32,
0.298,0.10,-0.24,-0.19,0.71,-0.52,-0.32,
0.3,0.10,-0.24,-0.19,0.70,-0.54,-0.35,
0.303,0.10,-0.24,-0.19,0.70,-0.56,-0.37,
0.304,-0.04,-0.06,-0.23,0.70,-0.56,-0.37,
0.304,-0.04,-0.06,-0.23,0.70,-0.57,-0.39,
0.31,-0.04,-0.06,-0.23,0.70,-0.59,-0.41,
0.311,-0.17,0.11,-0.31,0.70,-0.59,-0.41,
0.311,-0.17,0.11,-0.31,0.70,-0.60,-0.43,
0.311,-0.30,0.27,-0.37,0.70,-0.60,-0.43,
0.312,-0.30,0.27,-0.37,0.70,-0.61,-0.45,
0.314,-0.30,0.27,-0.37,0.70,-0.62,-0.46,
0.318,-0.37,0.33,-0.43,0.70,-0.62,-0.46,
0.318,-0.37,0.33,-0.43,0.70,-0.62,-0.48,
0.324,-0.37,0.33,-0.43,0.71,-0.63,-0.49,
0.324,-0.37,0.33,-0.43,0.70,-0.64,-0.50,
0.324,-0.39,0.35,-0.49,0.70,-0.64,-0.50,
0.325,-0.39,0.35,-0.49,0.71,-0.65,-0.51,
0.327,-0.41,0.34,-0.52,0.71,-0.65,-0.51,
0.328,-0.41,0.34,-0.52,0.71,-0.65,-0.51,
0.329,-0.41,0.34,-0.52,0.71,-0.65,-0.51,
0.331,-0.44,0.31,-0.55,0.71,-0.65,-0.51,
0.332,-0.44,0.31,-0.55,0.71,-0.65,-0.51,
0.333,-0.44,0.31,-0.55,0.71,-0.66,-0.51,
0.337,-0.45,0.27,-0.59,0.71,-0.66,-0.51,
0.337,-0.45,0.27,-0.59,0.70,-0.65,-0.51,
0.338,-0.45,0.27,-0.59,0.70,-0.65,-0.50,
0.341,-0.45,0.27,-0.59,0.70,-0.65,-0.49,
0.341,-0.47,0.22,-0.64,0.70,-0.65,-0.49,
0.343,-0.47,0.22,-0.64,0.69,-0.64,-0.47,
0.346,-0.47,0.22,-0.64,0.69,-0.63,-0.46,
0.347,-0.48,0.18,-0.68,0.69,-0.63,-0.46,
0.349,-0.48,0.18,-0.68,0.68,-0.61,-0.45,
0.35,-0.50,0.15,-0.76,0.68,-0.61,-0.45,
0.35,-0.50,0.15,-0.76,0.68,-0.60,-0.43,
0.355,-0.50,0.15,-0.76,0.67,-0.58,-0.41,
0.356,-0.57,0.15,-0.85,0.67,-0.58,-0.41,
0.356,-0.57,0.15,-0.85,0.66,-0.56,-0.39,
0.358,-0.57,0.15,-0.85,0.65,-0.55,-0.37,
0.36,-0.57,0.15,-0.85,0.64,-0.53,-0.35,
0.36,-0.53,0.13,-0.88,0.64,-0.53,-0.35,
0.363,-0.53,0.13,-0.88,0.63,-0.52,-0.33,
0.365,-0.53,0.13,-0.88,0.62,-0.51,-0.31,
0.365,-0.53,0.10,-0.86,0.62,-0.51,-0.31,
0.367,-0.53,0.10,-0.86,0.61,-0.49,-0.29,
0.37,-0.52,0.08,-0.76,0.61,-0.49,-0.29,
0.371,-0.52,0.08,-0.76,0.60,-0.48,-0.27,
0.373,-0.52,0.08,-0.76,0.59,-0.47,-0.25,
0.374,-0.51,0.10,-0.74,0.59,-0.47,-0.25,
0.375,-0.51,0.10,-0.74,0.58,-0.46,-0.23,
0.377,-0.51,0.10,-0.74,0.56,-0.46,-0.21,
0.381,-0.51,0.10,-0.74,0.55,-0.45,-0.20,
0.381,-0.49,0.12,-0.74,0.55,-0.45,-0.20,
0.382,-0.49,0.12,-0.74,0.54,-0.45,-0.18,
0.385,-0.49,0.12,-0.74,0.53,-0.44,-0.17,
0.386,-0.47,0.14,-0.76,0.53,-0.44,-0.17,
0.387,-0.47,0.14,-0.76,0.52,-0.44,-0.15,
0.39,-0.44,0.15,-0.81,0.52,-0.44,-0.15,
0.39,-0.44,0.15,-0.81,0.51,-0.44,-0.14,
0.392,-0.44,0.15,-0.81,0.50,-0.44,-0.13,
0.394,-0.43,0.13,-0.83,0.50,-0.44,-0.13,
0.394,-0.43,0.13,-0.83,0.49,-0.45,-0.12,
0.396,-0.43,0.13,-0.83,0.48,-0.45,-0.11,
0.399,-0.44,0.11,-0.81,0.48,-0.45,-0.11,
0.399,-0.44,0.11,-0.81,0.47,-0.46,-0.11,
0.401,-0.44,0.11,-0.81,0.46,-0.47,-0.10,
0.405,-0.46,0.13,-0.76,0.46,-0.47,-0.10,
0.405,-0.46,0.13,-0.76,0.45,-0.48,-0.10,
0.406,-0.46,0.13,-0.76,0.43,-0.49,-0.09,
0.409,-0.49,0.14,-0.73,0.43,-0.49,-0.09,
0.409,-0.49,0.14,-0.73,0.42,-0.50,-0.09,
0.411,-0.49,0.14,-0.73,0.40,-0.50,-0.08,
0.414,-0.50,0.17,-0.76,0.40,-0.50,-0.08,
0.415,-0.50,0.17,-0.76,0.39,-0.51,-0.08,
0.416,-0.50,0.17,-0.76,0.37,-0.51,-0.07,
0.419,-0.51,0.20,-0.78,0.37,-0.51,-0.07,
0.42,-0.51,0.20,-0.78,0.36,-0.52,-0.07,
0.421,-0.51,0.20,-0.78,0.34,-0.52,-0.06,
0.424,-0.51,0.20,-0.78,0.32,-0.52,-0.06,
0.425,-0.55,0.17,-0.79,0.32,-0.52,-0.06,
0.426,-0.55,0.17,-0.79,0.30,-0.52,-0.05,
0.429,-0.55,0.17,-0.79,0.28,-0.52,-0.05,
0.429,-0.51,0.14,-0.80,0.28,-0.52,-0.05,
0.431,-0.51,0.14,-0.80,0.26,-0.52,-0.04,
0.434,-0.49,0.08,-0.75,0.26,-0.52,-0.04,
0.434,-0.49,0.08,-0.75,0.25,-0.52,-0.03,
0.435,-0.49,0.08,-0.75,0.23,-0.53,-0.01,
0.438,-0.44,0.05,-0.70,0.23,-0.53,-0.01,
0.439,-0.44,0.05,-0.70,0.21,-0.53,-0.00,
0.44,-0.44,0.05,-0.70,0.20,-0.54,0.01,
0.443,-0.37,0.04,-0.62,0.20,-0.54,0.01,
0.444,-0.37,0.04,-0.62,0.18,-0.55,0.03,
0.451,-0.37,0.04,-0.62,0.18,-0.57,0.05,
0.453,-0.37,0.04,-0.62,0.17,-0.59,0.06,
0.453,-0.34,0.03,-0.50,0.17,-0.59,0.06,
0.453,-0.34,0.03,-0.50,0.16,-0.61,0.08,
0.454,-0.27,0.07,-0.40,0.16,-0.61,0.08,
0.454,-0.27,0.07,-0.40,0.16,-0.63,0.10,
0.454,-0.27,0.07,-0.40,0.16,-0.64,0.11,
0.457,-0.16,0.11,-0.37,0.16,-0.64,0.11,
0.458,-0.16,0.11,-0.37,0.15,-0.65,0.12,
0.459,-0.16,0.11,-0.37,0.15,-0.66,0.12,
0.462,-0.16,0.11,-0.37,0.15,-0.66,0.12,
0.463,0.02,0.12,-0.38,0.15,-0.66,0.12,
0.464,0.02,0.12,-0.38,0.15,-0.66,0.12,
0.467,0.18,0.08,-0.38,0.15,-0.66,0.12,
0.468,0.18,0.08,-0.38,0.15,-0.67,0.11,
0.469,0.18,0.08,-0.38,0.15,-0.67,0.10,
0.472,0.18,0.08,-0.38,0.16,-0.67,0.08,
0.473,0.33,-0.02,-0.27,0.16,-0.67,0.08,
0.474,0.33,-0.02,-0.27,0.16,-0.68,0.07,
0.476,0.33,-0.02,-0.27,0.17,-0.68,0.05,
0.477,0.38,-0.14,-0.19,0.17,-0.68,0.05,
0.479,0.38,-0.14,-0.19,0.17,-0.68,0.03,
0.482,0.42,-0.21,-0.17,0.17,-0.68,0.03,
0.482,0.42,-0.21,-0.17,0.18,-0.69,0.02,
0.484,0.42,-0.21,-0.17,0.19,-0.70,-0.00,
0.486,0.50,-0.30,-0.12,0.19,-0.70,-0.00,
0.487,0.50,-0.30,-0.12,0.20,-0.70,-0.02,
0.488,0.50,-0.30,-0.12,0.20,-0.71,-0.05,
0.491,0.50,-0.30,-0.12,0.21,-0.71,-0.07,
0.492,0.59,-0.36,-0.08,0.21,-0.71,-0.07,
0.494,0.59,-0.36,-0.08,0.22,-0.72,-0.08,
0.497,0.59,-0.36,-0.08,0.23,-0.73,-0.11,
0.497,0.62,-0.34,-0.08,0.23,-0.73,-0.11,
0.498,0.62,-0.34,-0.08,0.24,-0.75,-0.13,
0.501,0.61,-0.35,-0.04,0.24,-0.75,-0.13,
0.502,0.61,-0.35,-0.04,0.25,-0.76,-0.15,
0.503,0.61,-0.35,-0.04,0.26,-0.79,-0.16,
0.505,0.61,-0.35,-0.04,0.26,-0.81,-0.19,
0.506,0.56,-0.39,0.05,0.26,-0.81,-0.19,
0.508,0.56,-0.39,0.05,0.27,-0.84,-0.21,
0.51,0.56,-0.39,0.05,0.28,-0.87,-0.22,
0.51,0.55,-0.42,0.11,0.28,-0.87,-0.22,
0.513,0.55,-0.42,0.11,0.28,-0.90,-0.24,
0.516,0.55,-0.42,0.11,0.29,-0.92,-0.26,
0.516,0.53,-0.44,0.02,0.29,-0.92,-0.26,
0.517,0.53,-0.44,0.02,0.29,-0.95,-0.28,
0.521,0.53,-0.44,0.02,0.29,-0.98,-0.30,
0.521,0.51,-0.43,-0.11,0.29,-0.98,-0.30,
0.522,0.51,-0.43,-0.11,0.29,-1.00,-0.32,
0.525,0.51,-0.43,-0.11,0.29,-1.03,-0.34,
0.526,0.52,-0.50,-0.25,0.29,-1.03,-0.34,
0.527,0.52,-0.50,-0.25,0.29,-1.05,-0.36,
0.53,0.52,-0.50,-0.25,0.28,-1.08,-0.38,
0.531,0.50,-0.54,-0.37,0.28,-1.08,-0.38,
0.532,0.50,-0.54,-0.37,0.28,-1.10,-0.39,
0.535,0.50,-0.54,-0.37,0.27,-1.13,-0.41,
0.536,0.57,-0.62,-0.43,0.27,-1.13,-0.41,
0.537,0.57,-0.62,-0.43,0.26,-1.15,-0.43,
0.54,0.68,-0.71,-0.48,0.26,-1.15,-0.43,
0.541,0.68,-0.71,-0.48,0.26,-1.17,-0.45,
0.542,0.68,-0.71,-0.48,0.25,-1.18,-0.47,
0.551,0.68,-0.71,-0.48,0.24,-1.19,-0.49,
0.552,0.74,-0.67,-0.56,0.24,-1.19,-0.49,
0.553,0.74,-0.67,-0.56,0.23,-1.21,-0.50,
0.553,0.74,-0.67,-0.56,0.22,-1.22,-0.52,
0.553,0.86,-0.78,-0.52,0.22,-1.22,-0.52,
0.553,0.86,-0.78,-0.52,0.21,-1.23,-0.54,
0.555,0.88,-0.80,-0.56,0.21,-1.23,-0.54,
0.555,0.88,-0.80,-0.56,0.19,-1.25,-0.56,
0.557,0.88,-0.80,-0.56,0.18,-1.26,-0.59,
0.559,0.88,-0.80,-0.56,0.17,-1.27,-0.61,
0.56,0.93,-0.84,-0.52,0.17,-1.27,-0.61,
0.562,0.93,-0.84,-0.52,0.16,-1.28,-0.63,
0.563,0.93,-0.84,-0.52,0.14,-1.29,-0.66,
0.564,0.89,-0.73,-0.58,0.14,-1.29,-0.66,
0.566,0.89,-0.73,-0.58,0.13,-1.30,-0.68,
0.568,0.89,-0.73,-0.58,0.12,-1.30,-0.71,
0.569,0.84,-0.62,-0.60,0.12,-1.30,-0.71,
0.571,0.84,-0.62,-0.60,0.10,-1.30,-0.74,
0.573,0.75,-0.49,-0.69,0.10,-1.30,-0.74,
0.574,0.75,-0.49,-0.69,0.09,-1.30,-0.77,
0.576,0.75,-0.49,-0.69,0.07,-1.29,-0.80,
0.579,0.69,-0.38,-0.86,0.07,-1.29,-0.80,
0.58,0.69,-0.38,-0.86,0.05,-1.27,-0.83,
0.581,0.69,-0.38,-0.86,0.03,-1.26,-0.86,
0.583,0.58,-0.29,-0.99,0.03,-1.26,-0.86,
0.584,0.58,-0.29,-0.99,0.01,-1.24,-0.89,
0.585,0.58,-0.29,-0.99,-0.01,-1.22,-0.92,
0.589,0.58,-0.29,-0.99,-0.03,-1.20,-0.95,
0.589,0.41,-0.15,-1.09,-0.03,-1.20,-0.95,
0.591,0.41,-0.15,-1.09,-0.05,-1.18,-0.97,
0.594,0.41,-0.15,-1.09,-0.07,-1.15,-1.00,
0.594,0.31,-0.09,-1.18,-0.07,-1.15,-1.00,
0.596,0.31,-0.09,-1.18,-0.09,-1.13,-1.02,
0.598,0.17,0.06,-1.25,-0.09,-1.13,-1.02,
0.598,0.17,0.06,-1.25,-0.11,-1.10,-1.04,
0.6,0.17,0.06,-1.25,-0.13,-1.08,-1.06,
0.603,0.12,0.06,-1.26,-0.13,-1.08,-1.06,
0.604,0.12,0.06,-1.26,-0.15,-1.05,-1.08,
0.605,0.12,0.06,-1.26,-0.17,-1.03,-1.09,
0.608,0.04,0.12,-1.24,-0.17,-1.03,-1.09,
0.608,0.04,0.12,-1.24,-0.19,-1.00,-1.10,
0.609,0.04,0.12,-1.24,-0.21,-0.97,-1.11,
0.612,-0.10,0.21,-1.18,-0.21,-0.97,-1.11,
0.613,-0.10,0.21,-1.18,-0.22,-0.94,-1.11,
0.614,-0.10,0.21,-1.18,-0.24,-0.91,-1.12,
0.617,-0.10,0.21,-1.18,-0.25,-0.87,-1.11,
0.617,-0.26,0.29,-1.12,-0.25,-0.87,-1.11,
0.62,-0.26,0.29,-1.12,-0.26,-0.84,-1.11,
0.621,-0.41,0.41,-1.10,-0.26,-0.84,-1.11,
0.622,-0.41,0.41,-1.10,-0.27,-0.80,-1.10,
0.625,-0.41,0.41,-1.10,-0.28,-0.77,-1.09,
0.628,-0.51,0.57,-1.05,-0.28,-0.77,-1.09,
0.628,-0.51,0.57,-1.05,-0.28,-0.74,-1.08,
0.629,-0.51,0.57,-1.05,-0.29,-0.71,-1.06,
0.632,-0.51,0.57,-1.05,-0.29,-0.68,-1.05,
0.633,-0.50,0.63,-0.97,-0.29,-0.68,-1.05,
0.634,-0.50,0.63,-0.97,-0.30,-0.64,-1.03,
0.636,-0.51,0.73,-0.94,-0.30,-0.64,-1.03,
0.639,-0.51,0.73,-0.94,-0.30,-0.61,-1.01,
0.64,-0.51,0.73,-0.94,-0.30,-0.58,-0.99,
0.646,-0.55,0.80,-0.89,-0.30,-0.58,-0.99,
0.647,-0.55,0.80,-0.89,-0.31,-0.55,-0.97,
0.647,-0.55,0.80,-0.89,-0.31,-0.52,-0.95,
0.647,-0.58,0.88,-0.86,-0.31,-0.52,-0.95,
0.648,-0.58,0.88,-0.86,-0.30,-0.49,-0.92,
0.648,-0.58,0.88,-0.86,-0.30,-0.47,-0.90,
0.651,-0.58,0.88,-0.86,-0.30,-0.43,-0.87,
0.652,-0.67,1.04,-0.82,-0.30,-0.43,-0.87,
0.654,-0.67,1.04,-0.82,-0.30,-0.40,-0.84,
0.656,-0.67,1.04,-0.82,-0.30,-0.34,-0.80,
0.656,-0.71,1.18,-0.82,-0.30,-0.34,-0.80,
0.658,-0.71,1.18,-0.82,-0.30,-0.28,-0.76,
0.661,-0.71,1.18,-0.82,-0.31,-0.20,-0.72,
0.662,-0.71,1.32,-0.99,-0.31,-0.20,-0.72,
0.663,-0.71,1.32,-0.99,-0.32,-0.11,-0.67,
0.666,-0.62,1.48,-1.30,-0.32,-0.11,-0.67,
0.667,-0.62,1.48,-1.30,-0.33,-0.02,-0.62,
0.667,-0.62,1.48,-1.30,-0.33,0.04,-0.56,
0.67,-0.63,1.64,-1.22,-0.33,0.04,-0.56,
0.671,-0.63,1.64,-1.22,-0.33,0.07,-0.50,
0.672,-0.63,1.64,-1.22,-0.32,0.08,-0.43,
0.675,-0.63,1.64,-1.22,-0.30,0.07,-0.37,
0.675,-0.84,1.83,-0.74,-0.30,0.07,-0.37,
0.677,-0.84,1.83,-0.74,-0.29,0.06,-0.30,
0.681,-0.84,1.83,-0.74,-0.28,0.05,-0.23,
0.681,-0.97,1.93,-0.43,-0.28,0.05,-0.23,
0.682,-0.97,1.93,-0.43,-0.26,0.05,-0.16,
0.685,-0.97,1.93,-0.43,-0.24,0.04,-0.10,
0.685,-0.95,2.00,-0.45,-0.24,0.04,-0.10,
0.687,-0.95,2.00,-0.45,-0.23,0.04,-0.03,
0.689,-0.86,2.15,-0.60,-0.23,0.04,-0.03,
0.69,-0.86,2.15,-0.60,-0.21,0.05,0.02,
0.692,-0.86,2.15,-0.60,-0.19,0.05,0.08,
0.695,-0.88,2.27,-0.71,-0.19,0.05,0.08,
0.695,-0.88,2.27,-0.71,-0.18,0.06,0.13,
0.697,-0.88,2.27,-0.71,-0.16,0.06,0.17,
0.7,-0.94,2.25,-0.64,-0.16,0.06,0.17,
0.7,-0.94,2.25,-0.64,-0.14,0.06,0.21,
0.702,-0.94,2.25,-0.64,-0.13,0.06,0.24,
0.704,-0.94,2.25,-0.64,-0.11,0.06,0.27,
0.704,-1.00,2.15,-0.56,-0.11,0.06,0.27,
0.706,-1.00,2.15,-0.56,-0.10,0.05,0.29,
0.71,-1.00,2.15,-0.56,-0.10,0.04,0.30,
0.71,-0.95,1.84,-0.57,-0.10,0.04,0.30,
0.712,-0.95,1.84,-0.57,-0.09,0.03,0.31,
0.714,-0.81,1.46,-0.56,-0.09,0.03,0.31,
0.714,-0.81,1.46,-0.56,-0.09,0.00,0.30,
0.717,-0.81,1.46,-0.56,-0.09,-0.03,0.29,
0.72,-0.81,1.46,-0.56,-0.10,-0.08,0.27,
0.721,-0.62,1.02,-0.47,-0.10,-0.08,0.27,
0.721,-0.62,1.02,-0.47,-0.10,-0.13,0.25,
0.724,-0.45,0.63,-0.32,-0.10,-0.13,0.25,
0.725,-0.45,0.63,-0.32,-0.11,-0.19,0.22,
0.726,-0.45,0.63,-0.32,-0.12,-0.25,0.19,
0.729,-0.45,0.63,-0.32,-0.13,-0.31,0.17,
0.729,-0.35,0.36,-0.26,-0.13,-0.31,0.17,
0.73,-0.35,0.36,-0.26,-0.14,-0.37,0.14,
0.734,-0.35,0.36,-0.26,-0.15,-0.41,0.12,
0.734,-0.34,0.27,-0.35,-0.15,-0.41,0.12,
0.737,-0.34,0.27,-0.35,-0.16,-0.44,0.11,
0.739,-0.46,0.33,-0.90,-0.16,-0.44,0.11,
0.739,-0.46,0.33,-0.90,-0.18,-0.47,0.10,
0.74,-0.46,0.33,-0.90,-0.20,-0.51,0.10,
0.744,-0.64,0.56,-1.26,-0.20,-0.51,0.10,
0.744,-0.64,0.56,-1.26,-0.22,-0.56,0.11,
0.745,-0.64,0.56,-1.26,-0.24,-0.62,0.12,
0.749,-0.72,0.74,-0.92,-0.24,-0.62,0.12,
0.749,-0.72,0.74,-0.92,-0.25,-0.68,0.14,
0.75,-0.72,0.74,-0.92,-0.27,-0.74,0.17,
0.759,-0.72,0.74,-0.92,-0.27,-0.78,0.19,
0.76,-0.74,0.82,-0.59,-0.27,-0.78,0.19,
0.76,-0.74,0.82,-0.59,-0.27,-0.82,0.22,
0.76,-0.74,0.82,-0.59,-0.27,-0.84,0.26,
0.761,-0.85,0.82,-0.47,-0.27,-0.84,0.26,
0.761,-0.85,0.82,-0.47,-0.25,-0.85,0.29,
0.764,-0.99,0.80,-0.54,-0.25,-0.85,0.29,
0.765,-0.99,0.80,-0.54,-0.24,-0.86,0.32,
0.765,-0.99,0.80,-0.54,-0.22,-0.86,0.34,
0.767,-0.99,0.80,-0.54,-0.20,-0.87,0.37,
0.767,-1.07,0.70,-0.56,-0.20,-0.87,0.37,
0.77,-1.07,0.70,-0.56,-0.18,-0.88,0.40,
0.772,-1.09,0.65,-0.45,-0.18,-0.88,0.40,
0.772,-1.09,0.65,-0.45,-0.16,-0.89,0.42,
0.775,-1.09,0.65,-0.45,-0.14,-0.91,0.44,
0.777,-1.09,0.65,-0.45,-0.12,-0.93,0.45,
0.777,-1.09,0.59,-0.24,-0.12,-0.93,0.45,
0.78,-1.09,0.59,-0.24,-0.11,-0.96,0.46,
0.782,-1.09,0.59,-0.24,-0.09,-0.98,0.47,
0.782,-1.06,0.52,-0.14,-0.09,-0.98,0.47,
0.784,-1.06,0.52,-0.14,-0.07,-1.01,0.48,
0.786,-1.05,0.47,-0.12,-0.07,-1.01,0.48,
0.787,-1.05,0.47,-0.12,-0.06,-1.03,0.49,
0.789,-1.05,0.47,-0.12,-0.04,-1.05,0.50,
0.792,-1.05,0.47,-0.12,-0.03,-1.08,0.50,
0.792,-1.05,0.42,-0.16,-0.03,-1.08,0.50,
0.795,-1.05,0.42,-0.16,-0.01,-1.11,0.51,
0.796,-1.05,0.42,-0.16,0.00,-1.14,0.52,
0.797,-1.07,0.41,-0.18,0.00,-1.14,0.52,
0.8,-1.07,0.41,-0.18,0.02,-1.17,0.53,
0.802,-1.07,0.41,-0.18,0.04,-1.20,0.54,
0.803,-1.06,0.41,-0.15,0.04,-1.20,0.54,
0.804,-1.06,0.41,-0.15,0.05,-1.23,0.55,
0.805,-1.07,0.41,-0.20,0.05,-1.23,0.55,
0.806,-1.07,0.41,-0.20,0.07,-1.25,0.56,
0.809,-1.07,0.41,-0.20,0.08,-1.27,0.58,
0.812,-1.05,0.39,-0.40,0.08,-1.27,0.58,
0.812,-1.05,0.39,-0.40,0.09,-1.28,0.58,
0.813,-1.05,0.39,-0.40,0.09,-1.30,0.59,
0.815,-0.84,0.30,-0.45,0.09,-1.30,0.59,
0.816,-0.84,0.30,-0.45,0.10,-1.32,0.59,
0.819,-0.84,0.30,-0.45,0.10,-1.34,0.58,
0.821,-0.66,0.12,-0.72,0.10,-1.34,0.58,
0.821,-0.66,0.12,-0.72,0.10,-1.36,0.58,
0.823,-0.66,0.12,-0.72,0.10,-1.39,0.57,
0.826,-0.66,0.12,-0.72,0.10,-1.41,0.57,
0.827,-0.80,-0.01,-0.77,0.10,-1.41,0.57,
0.828,-0.80,-0.01,-0.77,0.10,-1.43,0.58,
0.831,-1.07,0.05,-0.79,0.10,-1.43,0.58,
0.831,-1.07,0.05,-0.79,0.10,-1.45,0.58,
0.832,-1.07,0.05,-0.79,0.10,-1.46,0.59,
0.835,-1.31,0.19,-0.92,0.10,-1.46,0.59,
0.836,-1.31,0.19,-0.92,0.10,-1.48,0.60,
0.838,-1.31,0.19,-0.92,0.09,-1.50,0.61,
0.84,-1.43,0.28,-1.03,0.09,-1.50,0.61,
0.84,-1.43,0.28,-1.03,0.09,-1.53,0.62,
0.842,-1.43,0.28,-1.03,0.08,-1.55,0.64,
0.846,-1.51,0.35,-0.98,0.08,-1.55,0.64,
0.846,-1.51,0.35,-0.98,0.08,-1.58,0.65,
0.847,-1.51,0.35,-0.98,0.08,-1.62,0.67,
0.85,-1.51,0.35,-0.98,0.07,-1.66,0.68,
0.851,-1.61,0.39,-0.92,0.07,-1.66,0.68,
0.852,-1.61,0.39,-0.92,0.07,-1.69,0.70,
0.86,-1.61,0.39,-0.92,0.06,-1.72,0.72,
0.861,-1.74,0.43,-0.90,0.06,-1.72,0.72,
0.861,-1.74,0.43,-0.90,0.06,-1.75,0.74,
0.861,-1.91,0.43,-1.05,0.06,-1.75,0.74,
0.862,-1.91,0.43,-1.05,0.05,-1.78,0.76,
0.862,-1.91,0.43,-1.05,0.04,-1.81,0.79,
0.865,-2.07,0.44,-1.25,0.04,-1.81,0.79,
0.865,-2.07,0.44,-1.25,0.02,-1.84,0.82,
0.866,-2.07,0.44,-1.25,0.00,-1.88,0.86,
0.869,-2.15,0.45,-1.32,0.00,-1.88,0.86,
0.87,-2.15,0.45,-1.32,-0.02,-1.91,0.89,
0.871,-2.15,0.45,-1.32,-0.04,-1.95,0.92,
0.874,-2.15,0.45,-1.32,-0.07,-1.98,0.95,
0.875,-2.12,0.43,-1.39,-0.07,-1.98,0.95,
0.876,-2.12,0.43,-1.39,-0.10,-2.01,0.99,
0.879,-2.12,0.43,-1.39,-0.13,-2.03,1.02,
0.88,-2.07,0.40,-1.56,-0.13,-2.03,1.02,
0.881,-2.07,0.40,-1.56,-0.17,-2.05,1.04,
0.885,-1.97,0.31,-1.79,-0.17,-2.05,1.04,
0.886,-1.97,0.31,-1.79,-0.21,-2.06,1.07,
0.886,-1.97,0.31,-1.79,-0.25,-2.08,1.10,
0.888,-1.79,0.25,-1.85,-0.25,-2.08,1.10,
0.889,-1.79,0.25,-1.85,-0.29,-2.09,1.12,
0.891,-1.79,0.25,-1.85,-0.32,-2.11,1.15,
0.894,-1.79,0.25,-1.85,-0.36,-2.13,1.16,
0.894,-1.62,0.17,-1.73,-0.36,-2.13,1.16,
0.895,-1.62,0.17,-1.73,-0.39,-2.15,1.18,
0.899,-1.62,0.17,-1.73,-0.42,-2.17,1.20,
0.899,-1.35,0.04,-1.38,-0.42,-2.17,1.20,
0.9,-1.35,0.04,-1.38,-0.44,-2.20,1.22,
0.903,-1.35,0.04,-1.38,-0.45,-2.22,1.24,
0.904,-1.11,0.02,-0.95,-0.45,-2.22,1.24,
0.906,-1.11,0.02,-0.95,-0.46,-2.23,1.26,
0.908,-1.11,0.02,-0.95,-0.46,-2.23,1.27,
0.909,-0.87,-0.04,-0.54,-0.46,-2.23,1.27,
0.91,-0.87,-0.04,-0.54,-0.46,-2.22,1.29,
0.913,-0.64,-0.14,-0.22,-0.46,-2.22,1.29,
0.914,-0.64,-0.14,-0.22,-0.46,-2.22,1.30,
0.915,-0.64,-0.14,-0.22,-0.45,-2.20,1.31,
0.917,-0.64,-0.14,-0.22,-0.43,-2.19,1.32,
0.918,-0.47,-0.17,0.17,-0.43,-2.19,1.32,
0.92,-0.47,-0.17,0.17,-0.41,-2.16,1.32,
0.923,-0.47,-0.17,0.17,-0.39,-2.14,1.33,
0.924,-0.31,-0.17,0.51,-0.39,-2.14,1.33,
0.924,-0.31,-0.17,0.51,-0.37,-2.11,1.33,
0.928,-0.31,-0.17,0.51,-0.34,-2.08,1.33,
0.928,-0.12,-0.19,0.74,-0.34,-2.08,1.33,
0.929,-0.12,-0.19,0.74,-0.31,-2.05,1.33,
0.932,-0.01,-0.22,0.90,-0.31,-2.05,1.33,
0.933,-0.01,-0.22,0.90,-0.29,-2.01,1.32,
0.934,-0.01,-0.22,0.90,-0.26,-1.97,1.32,
0.937,0.12,-0.27,0.97,-0.26,-1.97,1.32,
0.938,0.12,-0.27,0.97,-0.24,-1.93,1.31,
0.939,0.12,-0.27,0.97,-0.22,-1.88,1.30,
0.942,0.12,-0.27,0.97,-0.20,-1.84,1.29,
0.942,0.21,-0.31,0.92,-0.20,-1.84,1.29,
0.947,0.21,-0.31,0.92,-0.18,-1.79,1.28,
0.948,0.21,-0.31,0.92,-0.17,-1.74,1.27,
0.948,0.29,-0.29,0.83,-0.17,-1.74,1.27,
0.949,0.29,-0.29,0.83,-0.15,-1.70,1.26,
0.951,0.29,-0.29,0.83,-0.14,-1.65,1.26,
0.951,0.26,-0.24,0.70,-0.14,-1.65,1.26,
0.956,0.26,-0.24,0.70,-0.14,-1.60,1.25,
0.956,0.26,-0.24,0.70,-0.13,-1.56,1.25,
0.957,0.20,-0.18,0.57,-0.13,-1.56,1.25,
0.958,0.20,-0.18,0.57,-0.13,-1.52,1.25,
0.962,0.20,-0.18,0.57,-0.13,-1.48,1.26,
0.962,0.06,-0.14,0.46,-0.13,-1.48,1.26,
0.963,0.06,-0.14,0.46,-0.13,-1.45,1.26,
0.965,-0.12,-0.09,0.36,-0.13,-1.45,1.26,
0.966,-0.12,-0.09,0.36,-0.14,-1.42,1.27,
0.968,-0.12,-0.09,0.36,-0.14,-1.40,1.28,
0.97,-0.12,-0.09,0.36,-0.15,-1.37,1.29,
0.971,-0.26,-0.02,0.27,-0.15,-1.37,1.29,
0.973,-0.26,-0.02,0.27,-0.16,-1.35,1.31,
0.975,-0.26,-0.02,0.27,-0.17,-1.33,1.32,
0.975,-0.37,0.09,0.18,-0.17,-1.33,1.32,
0.978,-0.37,0.09,0.18,-0.18,-1.31,1.33,
0.981,-0.37,0.09,0.18,-0.19,-1.30,1.34,
0.982,-0.48,0.13,0.14,-0.19,-1.30,1.34,
0.983,-0.48,0.13,0.14,-0.20,-1.29,1.36,
0.986,-0.48,0.13,0.14,-0.21,-1.28,1.37,
0.986,-0.47,0.12,0.15,-0.21,-1.28,1.37,
0.988,-0.47,0.12,0.15,-0.22,-1.27,1.38,
0.991,-0.47,0.12,0.15,-0.22,-1.27,1.38,
0.991,-0.42,0.12,0.22,-0.22,-1.27,1.38,
0.992,-0.42,0.12,0.22,-0.23,-1.26,1.39,
0.995,-0.32,0.12,0.33,-0.23,-1.26,1.39,
0.996,-0.32,0.12,0.33,-0.24,-1.26,1.39,
0.997,-0.32,0.12,0.33,-0.24,-1.25,1.39,
1.001,-0.32,0.12,0.33,-0.25,-1.25,1.39,
1.001,-0.27,0.22,0.39,-0.25,-1.25,1.39,
1.002,-0.27,0.22,0.39,-0.25,-1.25,1.39,
1.004,-0.25,0.29,0.49,-0.25,-1.25,1.39,
1.005,-0.25,0.29,0.49,-0.25,-1.26,1.39,
1.007,-0.25,0.29,0.49,-0.24,-1.27,1.40,
1.01,-0.25,0.29,0.49,-0.23,-1.28,1.40,
1.011,-0.23,0.38,0.73,-0.23,-1.28,1.40,
1.012,-0.23,0.38,0.73,-0.23,-1.29,1.40,
1.015,-0.23,0.38,0.73,-0.22,-1.30,1.40,
1.015,-0.18,0.45,0.87,-0.22,-1.30,1.40,
1.017,-0.18,0.45,0.87,-0.21,-1.31,1.40,
1.019,-0.20,0.51,1.00,-0.21,-1.31,1.40,
1.02,-0.20,0.51,1.00,-0.20,-1.33,1.40,
1.022,-0.20,0.51,1.00,-0.18,-1.34,1.41,
1.025,-0.22,0.55,1.08,-0.18,-1.34,1.41,
1.025,-0.22,0.55,1.08,-0.17,-1.36,1.41,
1.027,-0.22,0.55,1.08,-0.16,-1.37,1.41,
1.029,-0.22,0.55,1.08,-0.16,-1.38,1.41,
1.03,-0.22,0.55,1.11,-0.16,-1.38,1.41,
1.031,-0.22,0.55,1.11,-0.15,-1.39,1.42,
1.034,-0.23,0.60,1.03,-0.15,-1.39,1.42,
1.035,-0.23,0.60,1.03,-0.14,-1.39,1.42,
1.037,-0.23,0.60,1.03,-0.14,-1.39,1.43,
1.039,-0.30,0.68,0.96,-0.14,-1.39,1.43,
1.04,-0.30,0.68,0.96,-0.13,-1.39,1.44,
1.041,-0.30,0.68,0.96,-0.12,-1.39,1.45,
1.048,-0.30,0.68,0.96,-0.11,-1.39,1.46,
1.048,-0.45,0.77,0.99,-0.11,-1.39,1.46,
1.049,-0.45,0.77,0.99,-0.10,-1.39,1.47,
1.049,-0.45,0.77,0.99,-0.09,-1.40,1.49,
1.049,-0.63,0.84,1.11,-0.09,-1.40,1.49,
1.051,-0.63,0.84,1.11,-0.08,-1.40,1.50,
1.059,-0.70,0.88,1.19,-0.08,-1.40,1.50,
1.059,-0.70,0.88,1.19,-0.08,-1.41,1.52,
1.059,-0.70,0.88,1.19,-0.07,-1.42,1.53,
1.06,-0.70,0.88,1.19,-0.06,-1.43,1.55,
1.06,-0.64,0.90,1.22,-0.06,-1.43,1.55,
1.061,-0.64,0.90,1.22,-0.05,-1.44,1.57,
1.064,-0.64,0.90,1.22,-0.04,-1.45,1.58,
1.064,-0.61,0.88,1.21,-0.04,-1.45,1.58,
1.066,-0.61,0.88,1.21,-0.02,-1.46,1.60,
1.068,-0.60,0.88,1.22,-0.02,-1.46,1.60,
1.068,-0.60,0.88,1.22,-0.01,-1.46,1.61,
1.071,-0.60,0.88,1.22,0.01,-1.47,1.63,
1.072,-0.63,0.88,1.32,0.01,-1.47,1.63,
1.072,-0.63,0.88,1.32,0.03,-1.48,1.64,
1.075,-0.63,0.88,1.32,0.05,-1.48,1.66,
1.078,-0.72,0.87,1.45,0.05,-1.48,1.66,
1.079,-0.72,0.87,1.45,0.07,-1.49,1.68,
1.079,-0.72,0.87,1.45,0.09,-1.49,1.70,
1.083,-0.80,1.06,1.55,0.09,-1.49,1.70,
1.083,-0.80,1.06,1.55,0.12,-1.50,1.72,
1.086,-0.80,1.06,1.55,0.14,-1.51,1.74,
1.087,-0.80,1.06,1.55,0.16,-1.52,1.75,
1.087,-0.81,1.10,1.65,0.16,-1.52,1.75,
1.09,-0.81,1.10,1.65,0.18,-1.53,1.76,
1.092,-0.81,1.10,1.65,0.20,-1.53,1.77,
1.093,-0.56,0.98,1.58,0.20,-1.53,1.77,
1.095,-0.56,0.98,1.58,0.21,-1.53,1.77,
1.097,-0.56,0.98,1.58,0.22,-1.52,1.76,
1.098,-0.24,0.87,1.34,0.22,-1.52,1.76,
1.099,-0.24,0.87,1.34,0.22,-1.51,1.76,
1.102,0.08,0.80,1.03,0.22,-1.51,1.76,
1.103,0.08,0.80,1.03,0.22,-1.50,1.75,
1.104,0.08,0.80,1.03,0.21,-1.48,1.74,
1.107,0.38,0.75,0.81,0.21,-1.48,1.74,
1.107,0.38,0.75,0.81,0.20,-1.47,1.73,
1.109,0.38,0.75,0.81,0.19,-1.44,1.71,
1.112,0.38,0.75,0.81,0.18,-1.42,1.70,
1.112,0.66,0.76,0.59,0.18,-1.42,1.70,
1.113,0.66,0.76,0.59,0.16,-1.39,1.68,
1.116,0.66,0.76,0.59,0.15,-1.35,1.66,
1.116,0.85,0.78,0.47,0.15,-1.35,1.66,
1.119,0.85,0.78,0.47,0.13,-1.32,1.64,
1.121,0.85,0.78,0.47,0.11,-1.29,1.62,
1.123,0.99,0.84,0.46,0.11,-1.29,1.62,
1.124,0.99,0.84,0.46,0.09,-1.26,1.61,
1.127,1.03,0.94,0.53,0.09,-1.26,1.61,
1.127,1.03,0.94,0.53,0.08,-1.24,1.59,
1.128,1.03,0.94,0.53,0.06,-1.21,1.57,
1.131,1.03,0.94,0.53,0.05,-1.18,1.56,
1.132,1.05,1.06,0.58,0.05,-1.18,1.56,
1.134,1.05,1.06,0.58,0.04,-1.16,1.55,
1.136,1.07,1.13,0.65,0.04,-1.16,1.55,
1.136,1.07,1.13,0.65,0.02,-1.13,1.53,
1.139,1.07,1.13,0.65,0.02,-1.11,1.52,
1.141,1.07,1.13,0.65,0.01,-1.10,1.51,
1.141,1.08,1.12,0.79,0.01,-1.10,1.51,
1.144,1.08,1.12,0.79,0.01,-1.09,1.51,
1.145,1.12,1.06,0.99,0.01,-1.09,1.51,
1.145,1.12,1.06,0.99,0.01,-1.08,1.50,
1.147,1.12,1.06,0.99,0.02,-1.08,1.50,
1.151,1.17,0.92,1.23,0.02,-1.08,1.50,
1.151,1.17,0.92,1.23,0.03,-1.09,1.49,
1.156,1.17,0.92,1.23,0.04,-1.10,1.49,
1.157,1.23,0.75,1.52,0.04,-1.10,1.49,
1.157,1.23,0.75,1.52,0.05,-1.11,1.50,
1.157,1.23,0.75,1.52,0.07,-1.13,1.50,
1.164,1.23,0.75,1.52,0.09,-1.15,1.51,
1.165,1.26,0.63,1.78,0.09,-1.15,1.51,
1.165,1.26,0.63,1.78,0.10,-1.18,1.52,
1.165,1.28,0.53,1.97,0.10,-1.18,1.52,
1.165,1.28,0.53,1.97,0.12,-1.20,1.53,
1.167,1.28,0.53,1.97,0.14,-1.22,1.55,
1.169,1.30,0.51,2.08,0.14,-1.22,1.55,
1.169,1.30,0.51,2.08,0.17,-1.24,1.56,
1.171,1.30,0.51,2.08,0.19,-1.26,1.58,
1.175,1.30,0.51,2.08,0.21,-1.28,1.60,
1.175,1.35,0.48,2.14,0.21,-1.28,1.60,
1.177,1.35,0.48,2.14,0.24,-1.29,1.63,
1.18,1.44,0.44,2.07,0.24,-1.29,1.63,
1.18,1.44,0.44,2.07,0.25,-1.30,1.65,
1.182,1.44,0.44,2.07,0.27,-1.31,1.67,
1.185,1.51,0.39,1.94,0.27,-1.31,1.67,
1.185,1.51,0.39,1.94,0.29,-1.32,1.69,
1.187,1.51,0.39,1.94,0.30,-1.34,1.72,
1.189,1.58,0.27,1.84,0.30,-1.34,1.72,
1.19,1.58,0.27,1.84,0.31,-1.35,1.74,
1.191,1.58,0.27,1.84,0.32,-1.37,1.76,
1.195,1.58,0.27,1.84,0.33,-1.39,1.79,
1.195,1.61,0.19,1.79,0.33,-1.39,1.79,
1.196,1.61,0.19,1.79,0.34,-1.41,1.81,
1.199,1.69,0.13,1.75,0.34,-1.41,1.81,
1.201,1.69,0.13,1.75,0.34,-1.42,1.83,
1.201,1.69,0.13,1.75,0.35,-1.44,1.86,
1.204,1.81,0.08,1.74,0.35,-1.44,1.86,
1.205,1.81,0.08,1.74,0.35,-1.46,1.88,
1.205,1.81,0.08,1.74,0.36,-1.48,1.90,
1.209,1.81,0.08,1.74,0.36,-1.50,1.91,
1.209,2.01,0.06,1.75,0.36,-1.50,1.91,
1.211,2.01,0.06,1.75,0.37,-1.51,1.93,
1.213,2.01,0.06,1.75,0.38,-1.53,1.94,
1.214,2.17,0.09,1.77,0.38,-1.53,1.94,
1.216,2.17,0.09,1.77,0.38,-1.55,1.96,
1.219,2.17,0.09,1.77,0.39,-1.57,1.97,
1.219,2.27,0.12,1.84,0.39,-1.57,1.97,
1.22,2.27,0.12,1.84,0.40,-1.59,1.98,
1.223,2.35,0.23,1.88,0.40,-1.59,1.98,
1.223,2.35,0.23,1.88,0.41,-1.60,1.99,
1.225,2.35,0.23,1.88,0.42,-1.62,2.00,
1.228,2.35,0.23,1.88,0.43,-1.63,2.00,
1.229,2.37,0.37,1.94,0.43,-1.63,2.00,
1.23,2.37,0.37,1.94,0.44,-1.64,2.01,
1.233,2.37,0.37,1.94,0.45,-1.64,2.01,
1.233,2.36,0.53,1.99,0.45,-1.64,2.01,
1.236,2.36,0.53,1.99,0.47,-1.64,2.02,
1.238,2.33,0.72,2.00,0.47,-1.64,2.02,
1.239,2.33,0.72,2.00,0.48,-1.64,2.02,
1.239,2.33,0.72,2.00,0.49,-1.63,2.01,
1.243,2.31,0.92,1.98,0.49,-1.63,2.01,
1.244,2.31,0.92,1.98,0.50,-1.61,2.01,
1.244,2.31,0.92,1.98,0.52,-1.59,2.00,
1.247,2.34,1.09,1.95,0.52,-1.59,2.00,
1.247,2.34,1.09,1.95,0.53,-1.57,1.99,
1.25,2.34,1.09,1.95,0.54,-1.54,1.97,
1.252,2.40,1.24,1.93,0.54,-1.54,1.97,
1.252,2.40,1.24,1.93,0.56,-1.52,1.95,
1.257,2.40,1.24,1.93,0.57,-1.49,1.93,
1.258,2.46,1.37,1.91,0.57,-1.49,1.93,
1.258,2.46,1.37,1.91,0.59,-1.46,1.90,
1.259,2.46,1.37,1.91,0.60,-1.43,1.87,
1.267,2.46,1.37,1.91,0.62,-1.40,1.84,
1.267,2.48,1.50,1.90,0.62,-1.40,1.84,
1.268,2.48,1.50,1.90,0.63,-1.37,1.81,
1.268,2.41,1.65,1.91,0.63,-1.37,1.81,
1.268,2.41,1.65,1.91,0.64,-1.34,1.77,
1.269,2.41,1.65,1.91,0.67,-1.31,1.73,
1.272,2.27,1.80,2.00,0.67,-1.31,1.73,
1.272,2.27,1.80,2.00,0.68,-1.29,1.69,
1.273,2.27,1.80,2.00,0.71,-1.26,1.66,
1.276,2.27,1.80,2.00,0.74,-1.24,1.61,
1.276,2.11,1.95,2.15,0.74,-1.24,1.61,
1.278,2.11,1.95,2.15,0.77,-1.22,1.57,
1.281,1.92,2.10,2.32,0.77,-1.22,1.57,
1.281,1.92,2.10,2.32,0.81,-1.20,1.53,
1.285,1.92,2.10,2.32,0.84,-1.19,1.49,
1.285,1.92,2.10,2.32,0.88,-1.17,1.45,
1.286,1.73,2.33,2.48,0.88,-1.17,1.45,
1.289,1.73,2.33,2.48,0.92,-1.15,1.41,
1.291,1.59,2.56,2.59,0.92,-1.15,1.41,
1.292,1.59,2.56,2.59,0.97,-1.13,1.37,
1.293,1.59,2.56,2.59,1.01,-1.10,1.33,
1.296,1.59,2.56,2.59,1.05,-1.08,1.29,
1.297,1.44,2.72,2.58,1.05,-1.08,1.29,
1.297,1.44,2.72,2.58,1.09,-1.05,1.25,
1.301,1.35,2.80,2.46,1.09,-1.05,1.25,
1.302,1.35,2.80,2.46,1.13,-1.02,1.21,
1.302,1.35,2.80,2.46,1.17,-0.98,1.17,
1.306,1.25,2.81,2.27,1.17,-0.98,1.17,
1.307,1.25,2.81,2.27,1.21,-0.94,1.13,
1.307,1.25,2.81,2.27,1.24,-0.90,1.09,
1.311,1.25,2.81,2.27,1.27,-0.86,1.05,
1.311,1.17,2.86,2.02,1.27,-0.86,1.05,
1.312,1.17,2.86,2.02,1.29,-0.81,1.01,
1.315,1.13,2.82,1.74,1.29,-0.81,1.01,
1.315,1.13,2.82,1.74,1.31,-0.76,0.98,
1.319,1.13,2.82,1.74,1.32,-0.71,0.94,
1.32,1.13,2.82,1.74,1.33,-0.65,0.90,
1.321,1.11,2.77,1.40,1.33,-0.65,0.90,
1.322,1.11,2.77,1.40,1.34,-0.60,0.87,
1.325,1.11,2.77,1.40,1.34,-0.55,0.83,
1.325,1.07,2.66,1.12,1.34,-0.55,0.83,
1.327,1.07,2.66,1.12,1.34,-0.49,0.79,
1.334,1.05,2.51,0.83,1.34,-0.49,0.79,
1.334,1.05,2.51,0.83,1.33,-0.44,0.76,
1.335,1.05,2.51,0.83,1.32,-0.39,0.72,
1.335,1.05,2.51,0.83,1.31,-0.34,0.69,
1.335,1.07,2.34,0.56,1.31,-0.34,0.69,
1.337,1.07,2.34,0.56,1.30,-0.29,0.66,
1.339,1.07,2.34,0.56,1.29,-0.24,0.62,
1.34,1.05,2.16,0.34,1.29,-0.24,0.62,
1.341,1.05,2.16,0.34,1.28,-0.20,0.60,
1.344,1.03,2.02,0.20,1.28,-0.20,0.60,
1.345,1.03,2.02,0.20,1.26,-0.16,0.57,
1.346,1.03,2.02,0.20,1.25,-0.13,0.54,
1.349,1.03,2.02,0.20,1.24,-0.11,0.52,
1.349,1.00,1.91,0.20,1.24,-0.11,0.52,
1.353,1.00,1.91,0.20,1.23,-0.09,0.50,
1.354,0.96,1.80,0.26,1.23,-0.09,0.50,
1.354,0.96,1.80,0.26,1.23,-0.08,0.48,
1.357,0.96,1.80,0.26,1.22,-0.08,0.46,
1.358,1.00,1.64,0.34,1.22,-0.08,0.46,
1.358,1.00,1.64,0.34,1.22,-0.08,0.44,
1.361,1.00,1.64,0.34,1.22,-0.09,0.42,
1.363,1.00,1.64,0.34,1.23,-0.10,0.41,
1.364,1.06,1.41,0.45,1.23,-0.10,0.41,
1.365,1.06,1.41,0.45,1.23,-0.12,0.39,
1.368,1.06,1.41,0.45,1.24,-0.15,0.38,
1.369,1.10,1.18,0.51,1.24,-0.15,0.38,
1.371,1.10,1.18,0.51,1.25,-0.18,0.38,
1.373,1.10,1.18,0.51,1.26,-0.22,0.38,
1.374,1.08,0.98,0.64,1.26,-0.22,0.38,
1.375,1.08,0.98,0.64,1.27,-0.26,0.37,
1.378,1.01,0.85,0.81,1.27,-0.26,0.37,
1.379,1.01,0.85,0.81,1.29,-0.31,0.38,
1.38,1.01,0.85,0.81,1.31,-0.37,0.39,
1.383,1.01,0.85,0.81,1.33,-0.43,0.40,
1.383,0.91,0.70,0.99,1.33,-0.43,0.40,
1.386,0.91,0.70,0.99,1.36,-0.49,0.41,
1.387,0.87,0.59,1.16,1.36,-0.49,0.41,
1.388,0.87,0.59,1.16,1.39,-0.56,0.43,
1.389,0.87,0.59,1.16,1.41,-0.62,0.45,
1.393,0.88,0.48,1.28,1.41,-0.62,0.45,
1.393,0.88,0.48,1.28,1.44,-0.69,0.48,
1.394,0.88,0.48,1.28,1.48,-0.76,0.50,
1.397,0.88,0.48,1.28,1.51,-0.83,0.52,
1.398,0.89,0.34,1.35,1.51,-0.83,0.52,
1.399,0.89,0.34,1.35,1.54,-0.90,0.55,
1.402,0.96,0.21,1.41,1.54,-0.90,0.55,
1.403,0.96,0.21,1.41,1.57,-0.97,0.57,
1.405,0.96,0.21,1.41,1.61,-1.04,0.60,
1.407,1.03,0.09,1.44,1.61,-1.04,0.60,
1.407,1.03,0.09,1.44,1.64,-1.11,0.62,
1.411,1.03,0.09,1.44,1.67,-1.18,0.64,
1.412,1.03,0.09,1.44,1.70,-1.25,0.66,
1.413,1.16,-0.02,1.45,1.70,-1.25,0.66,
1.414,1.16,-0.02,1.45,1.72,-1.32,0.68,
1.416,1.29,-0.09,1.40,1.72,-1.32,0.68,
1.417,1.29,-0.09,1.40,1.75,-1.38,0.69,
1.419,1.29,-0.09,1.40,1.77,-1.45,0.70,
1.422,1.38,-0.15,1.31,1.77,-1.45,0.70,
1.422,1.38,-0.15,1.31,1.79,-1.50,0.71,
1.424,1.38,-0.15,1.31,1.81,-1.55,0.72,
1.426,1.49,-0.13,1.20,1.81,-1.55,0.72,
1.427,1.49,-0.13,1.20,1.83,-1.60,0.72,
1.429,1.49,-0.13,1.20,1.84,-1.64,0.73,
1.431,1.59,-0.07,1.06,1.84,-1.64,0.73,
1.432,1.59,-0.07,1.06,1.85,-1.68,0.73,
1.433,1.59,-0.07,1.06,1.85,-1.72,0.73,
1.436,1.59,-0.07,1.06,1.86,-1.75,0.73,
1.437,1.67,-0.05,0.91,1.86,-1.75,0.73,
1.438,1.67,-0.05,0.91,1.86,-1.77,0.73,
1.441,1.72,-0.00,0.76,1.86,-1.77,0.73,
1.441,1.72,-0.00,0.76,1.85,-1.79,0.72,
1.444,1.72,-0.00,0.76,1.84,-1.80,0.72,
1.448,1.76,0.05,0.59,1.84,-1.80,0.72,
1.448,1.76,0.05,0.59,1.83,-1.81,0.72,
1.449,1.76,0.05,0.59,1.82,-1.81,0.71,
1.451,1.76,0.05,0.59,1.80,-1.80,0.70,
1.451,1.76,0.11,0.41,1.80,-1.80,0.70,
1.454,1.76,0.11,0.41,1.78,-1.80,0.70,
1.456,1.78,0.20,0.26,1.78,-1.80,0.70,
1.456,1.78,0.20,0.26,1.76,-1.79,0.69,
1.457,1.78,0.20,0.26,1.73,-1.77,0.67,
1.461,1.81,0.27,0.08,1.73,-1.77,0.67,
1.461,1.81,0.27,0.08,1.70,-1.75,0.66,
1.462,1.81,0.27,0.08,1.67,-1.73,0.65,
1.465,1.87,0.35,-0.11,1.67,-1.73,0.65,
1.465,1.87,0.35,-0.11,1.64,-1.70,0.63,
1.468,1.87,0.35,-0.11,1.60,-1.67,0.62,
1.47,1.94,0.38,-0.32,1.60,-1.67,0.62,
1.471,1.94,0.38,-0.32,1.55,-1.63,0.59,
1.472,1.94,0.38,-0.32,1.51,-1.59,0.57,
1.475,1.94,0.38,-0.32,1.46,-1.54,0.54,
1.475,2.02,0.43,-0.51,1.46,-1.54,0.54,
1.478,2.02,0.43,-0.51,1.41,-1.50,0.52,
1.48,2.10,0.44,-0.70,1.41,-1.50,0.52,
1.481,2.10,0.44,-0.70,1.35,-1.45,0.49,
1.482,2.10,0.44,-0.70,1.29,-1.39,0.45,
1.485,2.10,0.44,-0.70,1.24,-1.34,0.42,
1.486,2.15,0.49,-0.89,1.24,-1.34,0.42,
1.486,2.15,0.49,-0.89,1.18,-1.28,0.39,
1.49,2.14,0.55,-1.01,1.18,-1.28,0.39,
1.49,2.14,0.55,-1.01,1.12,-1.23,0.36,
1.491,2.14,0.55,-1.01,1.06,-1.17,0.33,
1.494,2.10,0.56,-1.03,1.06,-1.17,0.33,
1.495,2.10,0.56,-1.03,1.01,-1.12,0.30,
1.496,2.10,0.56,-1.03,0.95,-1.07,0.27,
1.499,2.00,0.57,-0.94,0.95,-1.07,0.27,
1.499,2.00,0.57,-0.94,0.90,-1.03,0.24,
1.501,2.00,0.57,-0.94,0.85,-0.98,0.22,
1.505,2.00,0.57,-0.94,0.80,-0.95,0.20,
1.505,1.84,0.58,-0.85,0.80,-0.95,0.20,
1.506,1.84,0.58,-0.85,0.75,-0.91,0.18,
1.509,1.84,0.58,-0.85,0.70,-0.88,0.16,
1.51,1.62,0.61,-0.73,0.70,-0.88,0.16,
1.512,1.62,0.61,-0.73,0.66,-0.86,0.15,
1.515,1.39,0.59,-0.55,0.66,-0.86,0.15,
1.515,1.39,0.59,-0.55,0.62,-0.84,0.13,
1.517,1.39,0.59,-0.55,0.58,-0.82,0.12,
1.518,1.15,0.58,-0.38,0.58,-0.82,0.12,
1.518,1.15,0.58,-0.38,0.55,-0.81,0.10,
1.521,1.15,0.58,-0.38,0.52,-0.81,0.09,
1.523,0.94,0.55,-0.15,0.52,-0.81,0.09,
1.524,0.94,0.55,-0.15,0.49,-0.81,0.07,
1.525,0.94,0.55,-0.15,0.47,-0.82,0.05,
1.528,0.94,0.55,-0.15,0.45,-0.84,0.04,
1.529,0.77,0.51,0.06,0.45,-0.84,0.04,
1.53,0.77,0.51,0.06,0.44,-0.86,0.02,
1.534,0.77,0.51,0.06,0.42,-0.90,0.01,
1.534,0.64,0.47,0.29,0.42,-0.90,0.01,
1.535,0.64,0.47,0.29,0.41,-0.95,-0.00,
1.538,0.49,0.38,0.53,0.41,-0.95,-0.00,
1.539,0.49,0.38,0.53,0.40,-1.02,-0.00,
1.54,0.49,0.38,0.53,0.39,-1.08,-0.00,
1.543,0.49,0.38,0.53,0.39,-1.13,-0.01,
1.544,0.16,0.13,0.75,0.39,-1.13,-0.01,
1.545,0.16,0.13,0.75,0.38,-1.17,-0.02,
1.547,0.16,0.13,0.75,0.38,-1.21,-0.04,
1.548,-0.01,0.22,0.71,0.38,-1.21,-0.04,
1.549,-0.01,0.22,0.71,0.39,-1.24,-0.06,
1.552,-0.01,0.22,0.71,0.40,-1.26,-0.08,
1.552,-0.04,0.44,0.93,0.40,-1.26,-0.08,
1.554,-0.04,0.44,0.93,0.42,-1.28,-0.11,
1.557,0.08,0.53,1.11,0.42,-1.28,-0.11,
1.557,0.08,0.53,1.11,0.44,-1.30,-0.14,
1.563,0.08,0.53,1.11,0.48,-1.31,-0.17,
1.564,0.15,0.49,1.33,0.48,-1.31,-0.17,
1.564,0.15,0.49,1.33,0.51,-1.33,-0.20,
1.565,0.15,0.49,1.33,0.55,-1.34,-0.23,
1.567,0.06,0.34,1.57,0.55,-1.34,-0.23,
1.568,0.06,0.34,1.57,0.59,-1.36,-0.25,
1.572,0.06,0.34,1.57,0.63,-1.37,-0.27,
1.573,0.06,0.34,1.57,0.67,-1.39,-0.29,
1.573,-0.18,0.24,1.71,0.67,-1.39,-0.29,
1.574,-0.18,0.24,1.71,0.71,-1.40,-0.31,
1.577,-0.41,0.22,1.79,0.71,-1.40,-0.31,
1.577,-0.41,0.22,1.79,0.75,-1.41,-0.32,
1.578,-0.41,0.22,1.79,0.79,-1.43,-0.34,
1.581,-0.58,0.19,1.80,0.79,-1.43,-0.34,
1.581,-0.58,0.19,1.80,0.83,-1.44,-0.35,
1.585,-0.58,0.19,1.80,0.86,-1.45,-0.37,
1.587,-0.58,0.19,1.80,0.89,-1.46,-0.38,
1.587,-0.67,0.15,1.77,0.89,-1.46,-0.38,
1.588,-0.67,0.15,1.77,0.92,-1.46,-0.40,
1.593,-0.67,0.15,1.77,0.95,-1.47,-0.41,
1.593,-0.73,0.09,1.71,0.95,-1.47,-0.41,
1.595,-0.73,0.09,1.71,0.97,-1.47,-0.43,
1.595,-0.80,0.02,1.60,0.97,-1.47,-0.43,
1.596,-0.80,0.02,1.60,1.00,-1.47,-0.45,
1.598,-0.80,0.02,1.60,1.02,-1.46,-0.47,
1.602,-0.89,-0.08,1.49,1.02,-1.46,-0.47,
1.602,-0.89,-0.08,1.49,1.04,-1.46,-0.49,
1.604,-0.89,-0.08,1.49,1.06,-1.46,-0.51,
1.605,-1.04,-0.17,1.39,1.06,-1.46,-0.51,
1.608,-1.04,-0.17,1.39,1.07,-1.45,-0.52,
1.608,-1.04,-0.17,1.39,1.08,-1.45,-0.53,
1.61,-1.18,-0.22,1.27,1.08,-1.45,-0.53,
1.61,-1.18,-0.22,1.27,1.09,-1.44,-0.54,
1.613,-1.18,-0.22,1.27,1.10,-1.43,-0.55,
1.615,-1.31,-0.26,1.13,1.10,-1.43,-0.55,
1.615,-1.31,-0.26,1.13,1.10,-1.42,-0.56,
1.619,-1.31,-0.26,1.13,1.10,-1.41,-0.57,
1.62,-1.37,-0.33,0.96,1.10,-1.41,-0.57,
1.62,-1.37,-0.33,0.96,1.10,-1.39,-0.58,
1.623,-1.37,-0.33,0.96,1.10,-1.38,-0.58,
1.625,-1.39,-0.44,0.82,1.10,-1.38,-0.58,
1.625,-1.39,-0.44,0.82,1.10,-1.37,-0.58,
1.628,-1.39,-0.44,0.82,1.09,-1.35,-0.59,
1.63,-1.39,-0.44,0.82,1.09,-1.34,-0.59,
1.63,-1.43,-0.54,0.74,1.09,-1.34,-0.59,
1.632,-1.43,-0.54,0.74,1.08,-1.33,-0.59,
1.635,-1.44,-0.59,0.69,1.08,-1.33,-0.59,
1.635,-1.44,-0.59,0.69,1.08,-1.32,-0.59,
1.637,-1.44,-0.59,0.69,1.07,-1.30,-0.58,
1.64,-1.54,-0.64,0.66,1.07,-1.30,-0.58,
1.64,-1.54,-0.64,0.66,1.07,-1.30,-0.58,
1.641,-1.54,-0.64,0.66,1.07,-1.29,-0.58,
1.645,-1.60,-0.71,0.66,1.07,-1.29,-0.58,
1.645,-1.60,-0.71,0.66,1.06,-1.28,-0.57,
1.646,-1.60,-0.71,0.66,1.06,-1.28,-0.57,
1.649,-1.66,-0.76,0.64,1.06,-1.28,-0.57,
1.649,-1.66,-0.76,0.64,1.06,-1.27,-0.56,
1.653,-1.66,-0.76,0.64,1.06,-1.27,-0.55,
1.655,-1.66,-0.76,0.64,1.05,-1.27,-0.55,
1.655,-1.71,-0.81,0.65,1.05,-1.27,-0.55,
1.656,-1.71,-0.81,0.65,1.05,-1.26,-0.54,
1.66,-1.73,-0.86,0.64,1.05,-1.26,-0.54,
1.66,-1.73,-0.86,0.64,1.05,-1.26,-0.54,
1.661,-1.73,-0.86,0.64,1.04,-1.26,-0.53,
1.663,-1.73,-0.86,0.64,1.04,-1.25,-0.53,
1.664,-1.70,-0.93,0.62,1.04,-1.25,-0.53,
1.665,-1.70,-0.93,0.62,1.04,-1.25,-0.53,
1.67,-1.70,-0.99,0.64,1.04,-1.25,-0.53,
1.67,-1.70,-0.99,0.64,1.04,-1.25,-0.53,
1.671,-1.70,-0.99,0.64,1.03,-1.25,-0.52,
1.674,-1.68,-1.04,0.63,1.03,-1.25,-0.52,
1.674,-1.68,-1.04,0.63,1.03,-1.24,-0.52,
1.675,-1.68,-1.04,0.63,1.03,-1.24,-0.52,
1.679,-1.68,-1.04,0.63,1.02,-1.23,-0.52,
1.679,-1.65,-1.12,0.59,1.02,-1.23,-0.52,
1.68,-1.65,-1.12,0.59,1.02,-1.22,-0.52,
1.683,-1.65,-1.12,0.59,1.01,-1.20,-0.52,
1.684,-1.66,-1.12,0.54,1.01,-1.20,-0.52,
1.686,-1.66,-1.12,0.54,1.00,-1.16,-0.52,
1.689,-1.66,-1.12,0.54,1.00,-1.12,-0.52,
1.689,-1.58,-1.19,0.40,1.00,-1.12,-0.52,
1.69,-1.58,-1.19,0.40,0.99,-1.05,-0.52,
1.693,-1.58,-1.19,0.40,0.97,-0.97,-0.52,
1.694,-1.44,-1.31,0.30,0.97,-0.97,-0.52,
1.695,-1.44,-1.31,0.30,0.96,-0.90,-0.52,
1.698,-1.44,-1.31,0.30,0.95,-0.84,-0.52,
1.699,-1.20,-1.48,0.30,0.95,-0.84,-0.52,
1.701,-1.20,-1.48,0.30,0.93,-0.80,-0.53,
1.703,-1.11,-1.61,0.51,0.93,-0.80,-0.53,
1.704,-1.11,-1.61,0.51,0.91,-0.79,-0.54,
1.704,-1.11,-1.61,0.51,0.89,-0.78,-0.55,
1.709,-1.27,-1.71,0.61,0.89,-0.78,-0.55,
1.709,-1.27,-1.71,0.61,0.87,-0.77,-0.55,
1.71,-1.27,-1.71,0.61,0.85,-0.76,-0.56,
1.713,-1.45,-1.79,0.36,0.85,-0.76,-0.56,
1.713,-1.45,-1.79,0.36,0.83,-0.75,-0.57,
1.714,-1.45,-1.79,0.36,0.81,-0.73,-0.57,
1.717,-1.45,-1.79,0.36,0.80,-0.71,-0.56,
1.717,-1.53,-1.88,0.12,0.80,-0.71,-0.56,
1.719,-1.53,-1.88,0.12,0.78,-0.68,-0.56,
1.722,-1.53,-1.88,0.12,0.76,-0.66,-0.56,
1.722,-1.56,-1.93,-0.06,0.76,-0.66,-0.56,
1.725,-1.56,-1.93,-0.06,0.73,-0.64,-0.55,
1.727,-1.56,-1.93,-0.06,0.70,-0.63,-0.55,
1.728,-1.61,-2.00,-0.08,0.70,-0.63,-0.55,
1.729,-1.61,-2.00,-0.08,0.67,-0.62,-0.55,
1.731,-1.68,-2.05,-0.05,0.67,-0.62,-0.55,
1.732,-1.68,-2.05,-0.05,0.64,-0.61,-0.55,
1.735,-1.68,-2.05,-0.05,0.61,-0.60,-0.54,
1.737,-1.68,-2.05,-0.05,0.58,-0.60,-0.54,
1.737,-1.69,-2.12,-0.02,0.58,-0.60,-0.54,
1.738,-1.69,-2.12,-0.02,0.54,-0.59,-0.53,
1.742,-1.69,-2.12,-0.02,0.51,-0.59,-0.53,
1.743,-1.65,-2.23,-0.05,0.51,-0.59,-0.53,
1.744,-1.65,-2.23,-0.05,0.48,-0.58,-0.52,
1.747,-1.64,-2.31,-0.14,0.48,-0.58,-0.52,
1.747,-1.64,-2.31,-0.14,0.45,-0.57,-0.51,
1.748,-1.64,-2.31,-0.14,0.42,-0.57,-0.50,
1.751,-1.64,-2.31,-0.14,0.38,-0.56,-0.49,
1.751,-1.68,-2.33,-0.23,0.38,-0.56,-0.49,
1.754,-1.68,-2.33,-0.23,0.35,-0.55,-0.48,
1.756,-1.72,-2.35,-0.26,0.35,-0.55,-0.48,
1.757,-1.72,-2.35,-0.26,0.32,-0.54,-0.47,
1.758,-1.72,-2.35,-0.26,0.28,-0.53,-0.46,
1.765,-1.72,-2.35,-0.26,0.25,-0.51,-0.44,
1.765,-1.71,-2.41,-0.27,0.25,-0.51,-0.44,
1.765,-1.71,-2.41,-0.27,0.21,-0.51,-0.43,
1.766,-1.71,-2.41,-0.27,0.18,-0.50,-0.41,
1.766,-1.69,-2.49,-0.29,0.18,-0.50,-0.41,
1.776,-1.69,-2.49,-0.29,0.14,-0.49,-0.39,
1.777,-1.69,-2.49,-0.29,0.10,-0.48,-0.37,
1.777,-1.65,-2.59,-0.30,0.10,-0.48,-0.37,
1.777,-1.65,-2.59,-0.30,0.07,-0.47,-0.35,
1.778,-1.59,-2.71,-0.30,0.07,-0.47,-0.35,
1.778,-1.59,-2.71,-0.30,0.03,-0.47,-0.33,
1.778,-1.59,-2.71,-0.30,-0.01,-0.46,-0.31,
1.78,-1.48,-2.83,-0.29,-0.01,-0.46,-0.31,
1.781,-1.48,-2.83,-0.29,-0.05,-0.45,-0.29,
1.783,-1.48,-2.83,-0.29,-0.08,-0.45,-0.27,
1.785,-1.48,-2.83,-0.29,-0.12,-0.44,-0.25,
1.786,-1.31,-3.04,-0.27,-0.12,-0.44,-0.25,
1.787,-1.31,-3.04,-0.27,-0.16,-0.43,-0.22,
1.789,-1.12,-3.24,-0.25,-0.16,-0.43,-0.22,
1.79,-1.12,-3.24,-0.25,-0.20,-0.42,-0.20,
1.793,-1.12,-3.24,-0.25,-0.24,-0.41,-0.18,
1.794,-0.96,-3.48,-0.24,-0.24,-0.41,-0.18,
1.795,-0.96,-3.48,-0.24,-0.29,-0.40,-0.16,
1.799,-0.96,-3.48,-0.24,-0.33,-0.39,-0.14,
1.799,-0.84,-3.68,-0.21,-0.33,-0.39,-0.14,
1.8,-0.84,-3.68,-0.21,-0.37,-0.38,-0.12,
1.802,-0.84,-3.68,-0.21,-0.41,-0.37,-0.10,
1.805,-0.74,-3.87,-0.15,-0.41,-0.37,-0.10,
1.805,-0.74,-3.87,-0.15,-0.46,-0.36,-0.08,
1.806,-0.74,-3.87,-0.15,-0.50,-0.35,-0.07,
1.81,-0.74,-3.87,-0.15,-0.54,-0.34,-0.04,
1.81,-0.69,-4.05,-0.09,-0.54,-0.34,-0.04,
1.811,-0.69,-4.05,-0.09,-0.59,-0.33,-0.02,
1.815,-0.69,-4.05,-0.09,-0.63,-0.33,-0.00,
1.815,-0.66,-4.15,-0.03,-0.63,-0.33,-0.00,
1.816,-0.66,-4.15,-0.03,-0.67,-0.32,0.03,
1.819,-0.66,-4.15,-0.03,-0.71,-0.32,0.05,
1.82,-0.67,-4.22,0.05,-0.71,-0.32,0.05,
1.821,-0.67,-4.22,0.05,-0.75,-0.31,0.08,
1.824,-0.67,-4.25,0.17,-0.75,-0.31,0.08,
1.824,-0.67,-4.25,0.17,-0.79,-0.32,0.11,
1.827,-0.67,-4.25,0.17,-0.82,-0.32,0.15,
1.829,-0.67,-4.25,0.17,-0.86,-0.33,0.18,
1.829,-0.71,-4.25,0.30,-0.86,-0.33,0.18,
1.83,-0.71,-4.25,0.30,-0.90,-0.34,0.22,
1.833,-0.71,-4.25,0.30,-0.93,-0.35,0.25,
1.834,-0.75,-4.18,0.45,-0.93,-0.35,0.25,
1.837,-0.75,-4.18,0.45,-0.96,-0.36,0.29,
1.838,-0.75,-4.18,0.45,-0.99,-0.38,0.32,
1.838,-0.78,-4.11,0.59,-0.99,-0.38,0.32,
1.841,-0.78,-4.11,0.59,-1.02,-0.39,0.36,
1.843,-0.78,-4.11,0.59,-1.04,-0.41,0.40,
1.844,-0.76,-4.01,0.71,-1.04,-0.41,0.40,
1.846,-0.76,-4.01,0.71,-1.07,-0.43,0.44,
1.848,-0.74,-3.84,0.84,-1.07,-0.43,0.44,
1.849,-0.74,-3.84,0.84,-1.09,-0.45,0.47,
1.851,-0.74,-3.84,0.84,-1.11,-0.47,0.51,
1.853,-0.74,-3.68,0.95,-1.11,-0.47,0.51,
1.854,-0.74,-3.68,0.95,-1.13,-0.49,0.54,
1.855,-0.74,-3.68,0.95,-1.14,-0.51,0.58,
1.858,-0.74,-3.68,0.95,-1.16,-0.53,0.61,
1.86,-0.76,-3.46,1.05,-1.16,-0.53,0.61,
1.86,-0.76,-3.46,1.05,-1.17,-0.54,0.64,
1.869,-0.75,-3.21,1.11,-1.17,-0.54,0.64,
1.869,-0.75,-3.21,1.11,-1.18,-0.55,0.67,
1.87,-0.75,-3.21,1.11,-1.19,-0.56,0.69,
1.87,-0.75,-3.21,1.11,-1.20,-0.57,0.72,
1.87,-0.80,-2.86,1.20,-1.20,-0.57,0.72,
1.871,-0.80,-2.86,1.20,-1.20,-0.57,0.75,
1.873,-0.83,-2.51,1.29,-1.20,-0.57,0.75,
1.873,-0.83,-2.51,1.29,-1.19,-0.56,0.77,
1.874,-0.83,-2.51,1.29,-1.19,-0.55,0.80,
1.881,-0.83,-2.51,1.29,-1.18,-0.53,0.82,
1.881,-0.88,-2.13,1.34,-1.18,-0.53,0.82,
1.882,-0.88,-2.13,1.34,-1.16,-0.51,0.84,
1.882,-0.88,-2.13,1.34,-1.15,-0.49,0.86,
1.882,-0.95,-1.73,1.43,-1.15,-0.49,0.86,
1.885,-0.95,-1.73,1.43,-1.13,-0.46,0.88,
1.886,-1.03,-1.31,1.56,-1.13,-0.46,0.88,
1.886,-1.03,-1.31,1.56,-1.10,-0.43,0.91,
1.889,-1.03,-1.31,1.56,-1.08,-0.39,0.92,
1.891,-1.20,-0.86,1.66,-1.08,-0.39,0.92,
1.891,-1.20,-0.86,1.66,-1.04,-0.35,0.94,
1.894,-1.20,-0.86,1.66,-1.01,-0.30,0.96,
1.897,-1.20,-0.86,1.66,-0.97,-0.24,0.98,
1.897,-1.40,-0.38,1.76,-0.97,-0.24,0.98,
1.898,-1.40,-0.38,1.76,-0.93,-0.18,0.99,
1.902,-1.60,0.04,1.79,-0.93,-0.18,0.99,
1.902,-1.60,0.04,1.79,-0.88,-0.12,1.00,
1.903,-1.60,0.04,1.79,-0.84,-0.05,1.01,
1.907,-1.80,0.51,1.83,-0.84,-0.05,1.01,
1.908,-1.80,0.51,1.83,-0.79,0.01,1.01,
1.909,-1.80,0.51,1.83,-0.74,0.08,1.02,
1.912,-1.80,0.51,1.83,-0.70,0.15,1.02,
1.912,-1.95,0.97,1.84,-0.70,0.15,1.02,
1.913,-1.95,0.97,1.84,-0.65,0.22,1.01,
1.915,-1.95,0.97,1.84,-0.61,0.29,1.00,
1.916,-2.04,1.33,1.78,-0.61,0.29,1.00,
1.918,-2.04,1.33,1.78,-0.57,0.35,0.99,
1.922,-2.06,1.54,1.66,-0.57,0.35,0.99,
1.922,-2.06,1.54,1.66,-0.54,0.41,0.98,
1.924,-2.06,1.54,1.66,-0.50,0.47,0.96,
1.926,-2.06,1.68,1.52,-0.50,0.47,0.96,
1.927,-2.06,1.68,1.52,-0.47,0.54,0.94,
1.928,-2.06,1.68,1.52,-0.44,0.59,0.91,
1.931,-2.06,1.68,1.52,-0.41,0.65,0.87,
1.931,-2.06,1.81,1.25,-0.41,0.65,0.87,
1.933,-2.06,1.81,1.25,-0.38,0.70,0.83,
1.935,-2.00,1.81,1.11,-0.38,0.70,0.83,
1.935,-2.00,1.81,1.11,-0.35,0.75,0.79,
1.937,-2.00,1.81,1.11,-0.33,0.79,0.75,
1.939,-2.00,1.81,1.11,-0.30,0.82,0.70,
1.94,-1.96,1.81,0.92,-0.30,0.82,0.70,
1.943,-1.96,1.81,0.92,-0.28,0.85,0.65,
1.945,-1.94,1.79,0.74,-0.28,0.85,0.65,
1.945,-1.94,1.79,0.74,-0.27,0.88,0.61,
1.947,-1.94,1.79,0.74,-0.25,0.90,0.56,
1.95,-1.98,1.74,0.56,-0.25,0.90,0.56,
1.951,-1.98,1.74,0.56,-0.24,0.91,0.52,
1.952,-1.98,1.74,0.56,-0.23,0.91,0.48,
1.955,-1.98,1.63,0.43,-0.23,0.91,0.48,
1.955,-1.98,1.63,0.43,-0.22,0.91,0.44,
1.957,-1.98,1.63,0.43,-0.22,0.90,0.40,
1.963,-1.99,1.46,0.33,-0.22,0.90,0.40,
1.964,-1.99,1.46,0.33,-0.21,0.89,0.37,
1.964,-1.99,1.46,0.33,-0.20,0.87,0.33,
1.965,-1.99,1.46,0.33,-0.19,0.85,0.30,
1.965,-1.93,1.22,0.21,-0.19,0.85,0.30,
1.966,-1.93,1.22,0.21,-0.18,0.82,0.28,
1.975,-1.83,0.94,0.13,-0.18,0.82,0.28,
1.975,-1.83,0.94,0.13,-0.17,0.80,0.25,
1.975,-1.83,0.94,0.13,-0.16,0.77,0.23,
1.975,-1.83,0.94,0.13,-0.14,0.73,0.22,
1.976,-1.71,0.70,0.07,-0.14,0.73,0.22,
1.976,-1.71,0.70,0.07,-0.13,0.70,0.20,
1.978,-1.71,0.70,0.07,-0.12,0.66,0.19,
1.979,-1.57,0.42,-0.01,-0.12,0.66,0.19,
1.98,-1.57,0.42,-0.01,-0.10,0.63,0.18,
1.984,-1.43,0.12,-0.09,-0.10,0.63,0.18,
1.985,-1.43,0.12,-0.09,-0.09,0.59,0.18,
1.986,-1.43,0.12,-0.09,-0.07,0.54,0.18,
1.989,-1.43,0.12,-0.09,-0.06,0.50,0.18,
1.989,-1.27,-0.21,-0.19,-0.06,0.50,0.18,
1.991,-1.27,-0.21,-0.19,-0.05,0.46,0.19,
1.993,-1.04,-0.61,-0.26,-0.05,0.46,0.19,
1.993,-1.04,-0.61,-0.26,-0.03,0.41,0.19,
1.995,-1.04,-0.61,-0.26,-0.02,0.36,0.20,
1.998,-0.80,-1.04,-0.34,-0.02,0.36,0.20,
1.998,-0.80,-1.04,-0.34,-0.01,0.31,0.22,
2.001,-0.80,-1.04,-0.34,-0.00,0.26,0.23,
2.003,-0.57,-1.41,-0.39,-0.00,0.26,0.23,
2.004,-0.57,-1.41,-0.39,0.01,0.20,0.25,
2.005,-0.57,-1.41,-0.39,0.01,0.15,0.27,
2.01,-0.57,-1.41,-0.39,0.01,0.10,0.29,
2.011,-0.35,-1.76,-0.45,0.01,0.10,0.29,
2.011,-0.35,-1.76,-0.45,0.02,0.05,0.32,
2.013,-0.35,-1.76,-0.45,0.03,-0.00,0.35,
2.013,-0.15,-2.02,-0.50,0.03,-0.00,0.35,
2.015,-0.15,-2.02,-0.50,0.03,-0.05,0.38,
2.018,0.03,-2.22,-0.50,0.03,-0.05,0.38,
2.019,0.03,-2.22,-0.50,0.03,-0.10,0.41,
2.02,0.03,-2.22,-0.50,0.03,-0.15,0.44,
2.023,0.23,-2.34,-0.55,0.03,-0.15,0.44,
2.023,0.23,-2.34,-0.55,0.03,-0.19,0.47,
2.025,0.23,-2.34,-0.55,0.03,-0.22,0.51,
2.028,0.23,-2.34,-0.55,0.03,-0.26,0.54,
2.028,0.44,-2.42,-0.60,0.03,-0.26,0.54,
2.029,0.44,-2.42,-0.60,0.03,-0.29,0.57,
2.033,0.44,-2.42,-0.60,0.03,-0.31,0.60,
2.033,0.64,-2.46,-0.66,0.03,-0.31,0.60,
2.034,0.64,-2.46,-0.66,0.03,-0.33,0.64,
2.037,0.64,-2.46,-0.66,0.02,-0.35,0.67,
2.037,0.81,-2.45,-0.74,0.02,-0.35,0.67,
2.04,0.81,-2.45,-0.74,0.01,-0.36,0.70,
2.043,0.94,-2.37,-0.78,0.01,-0.36,0.70,
2.044,0.94,-2.37,-0.78,0.00,-0.36,0.73,
2.044,0.94,-2.37,-0.78,-0.01,-0.36,0.76,
2.047,1.06,-2.20,-0.80,-0.01,-0.36,0.76,
2.048,1.06,-2.20,-0.80,-0.02,-0.36,0.78,
2.048,1.06,-2.20,-0.80,-0.03,-0.35,0.81,
2.051,1.15,-2.00,-0.79,-0.03,-0.35,0.81,
2.052,1.15,-2.00,-0.79,-0.05,-0.33,0.83,
2.054,1.15,-2.00,-0.79,-0.06,-0.32,0.85,
2.057,1.21,-1.69,-0.82,-0.06,-0.32,0.85,
2.057,1.21,-1.69,-0.82,-0.08,-0.29,0.86,
2.061,1.21,-1.69,-0.82,-0.10,-0.26,0.88,
2.062,1.21,-1.69,-0.82,-0.12,-0.23,0.89,
2.062,1.25,-1.32,-0.86,-0.12,-0.23,0.89,
2.063,1.25,-1.32,-0.86,-0.14,-0.19,0.90,
2.066,1.25,-1.32,-0.86,-0.17,-0.14,0.90,
2.067,1.28,-0.96,-0.93,-0.17,-0.14,0.90,
2.068,1.28,-0.96,-0.93,-0.19,-0.08,0.91,
2.071,1.32,-0.67,-1.01,-0.19,-0.08,0.91,
2.072,1.32,-0.67,-1.01,-0.22,-0.03,0.90,
2.073,1.32,-0.67,-1.01,-0.25,0.04,0.90,
2.076,1.38,-0.40,-1.09,-0.25,0.04,0.90,
2.076,1.38,-0.40,-1.09,-0.28,0.10,0.89,
2.084,1.38,-0.40,-1.09,-0.32,0.17,0.87,
2.085,1.38,-0.40,-1.09,-0.35,0.24,0.86,
2.085,1.41,-0.13,-1.17,-0.35,0.24,0.86,
2.085,1.41,-0.13,-1.17,-0.39,0.31,0.84,
2.086,1.42,0.11,-1.24,-0.39,0.31,0.84,
2.086,1.42,0.11,-1.24,-0.43,0.39,0.83,
2.088,1.42,0.11,-1.24,-0.48,0.47,0.81,
2.091,1.40,0.36,-1.30,-0.48,0.47,0.81,
2.094,1.40,0.36,-1.30,-0.52,0.54,0.78,
2.095,1.40,0.36,-1.30,-0.56,0.62,0.76,
2.096,1.34,0.55,-1.31,-0.56,0.62,0.76,
2.096,1.34,0.55,-1.31,-0.60,0.70,0.74,
2.097,1.34,0.55,-1.31,-0.64,0.77,0.72,
2.099,1.26,0.74,-1.26,-0.64,0.77,0.72,
2.1,1.26,0.74,-1.26,-0.68,0.84,0.70,
2.102,1.26,0.74,-1.26,-0.72,0.92,0.67,
2.104,1.17,0.91,-1.15,-0.72,0.92,0.67,
2.105,1.17,0.91,-1.15,-0.75,0.99,0.65,
2.108,1.17,0.91,-1.15,-0.78,1.05,0.62,
2.11,1.17,0.91,-1.15,-0.81,1.12,0.60,
2.11,1.04,1.06,-1.01,-0.81,1.12,0.60,
2.112,1.04,1.06,-1.01,-0.83,1.18,0.57,
2.115,1.04,1.06,-1.01,-0.84,1.24,0.55,
2.115,0.94,1.21,-0.85,-0.84,1.24,0.55,
2.116,0.94,1.21,-0.85,-0.86,1.29,0.52,
2.12,0.81,1.30,-0.69,-0.86,1.29,0.52,
2.12,0.81,1.30,-0.69,-0.87,1.34,0.50,
2.121,0.81,1.30,-0.69,-0.87,1.39,0.47,
2.125,0.68,1.41,-0.52,-0.87,1.39,0.47,
2.125,0.68,1.41,-0.52,-0.87,1.43,0.44,
2.127,0.68,1.41,-0.52,-0.87,1.46,0.42,
2.129,0.56,1.48,-0.38,-0.87,1.46,0.42,
2.129,0.56,1.48,-0.38,-0.87,1.49,0.39,
2.132,0.56,1.48,-0.38,-0.86,1.51,0.37,
2.134,0.56,1.48,-0.38,-0.84,1.53,0.34,
2.134,0.41,1.56,-0.26,-0.84,1.53,0.34,
2.137,0.41,1.56,-0.26,-0.83,1.54,0.31,
2.139,0.41,1.56,-0.26,-0.81,1.55,0.29,
2.139,0.27,1.61,-0.16,-0.81,1.55,0.29,
2.142,0.27,1.61,-0.16,-0.79,1.55,0.26,
2.144,0.27,1.61,-0.16,-0.77,1.55,0.24,
2.144,0.08,1.62,-0.09,-0.77,1.55,0.24,
2.146,0.08,1.62,-0.09,-0.75,1.54,0.22,
2.149,0.08,1.62,-0.09,-0.72,1.53,0.21,
2.149,-0.08,1.67,-0.05,-0.72,1.53,0.21,
2.151,-0.08,1.67,-0.05,-0.70,1.51,0.19,
2.153,-0.24,1.68,0.01,-0.70,1.51,0.19,
2.153,-0.24,1.68,0.01,-0.67,1.48,0.17,
2.155,-0.24,1.68,0.01,-0.64,1.45,0.16,
2.158,-0.24,1.68,0.01,-0.62,1.41,0.15,
2.158,-0.39,1.69,0.03,-0.62,1.41,0.15,
2.161,-0.39,1.69,0.03,-0.59,1.38,0.14,
2.163,-0.39,1.69,0.03,-0.56,1.33,0.14,
2.163,-0.49,1.66,0.06,-0.56,1.33,0.14,
2.165,-0.49,1.66,0.06,-0.54,1.29,0.13,
2.167,-0.58,1.64,0.07,-0.54,1.29,0.13,
2.168,-0.58,1.64,0.07,-0.51,1.24,0.12,
2.17,-0.58,1.64,0.07,-0.49,1.19,0.12,
2.173,-0.62,1.62,0.01,-0.49,1.19,0.12,
2.173,-0.62,1.62,0.01,-0.46,1.14,0.12,
2.176,-0.62,1.62,0.01,-0.43,1.10,0.12,
2.178,-0.72,1.57,-0.05,-0.43,1.10,0.12,
2.179,-0.72,1.57,-0.05,-0.41,1.05,0.13,
2.18,-0.72,1.57,-0.05,-0.40,1.02,0.13,
2.183,-0.72,1.57,-0.05,-0.40,1.00,0.13,
2.183,-0.80,1.49,-0.17,-0.40,1.00,0.13,
2.184,-0.80,1.49,-0.17,-0.40,0.97,0.14,
2.187,-0.87,1.34,-0.70,-0.40,0.97,0.14,
2.188,-0.87,1.34,-0.70,-0.39,0.94,0.15,
2.19,-0.87,1.34,-0.70,-0.39,0.91,0.16,
2.194,-0.90,1.41,-0.59,-0.39,0.91,0.16,
2.195,-0.90,1.41,-0.59,-0.39,0.88,0.17,
2.195,-0.90,1.41,-0.59,-0.38,0.84,0.19,
2.197,-0.90,1.41,-0.59,-0.37,0.81,0.21,
2.197,-0.92,1.39,-0.64,-0.37,0.81,0.21,
2.2,-0.92,1.39,-0.64,-0.36,0.77,0.22,
2.202,-0.92,1.39,-0.64,-0.35,0.74,0.24,
2.202,-0.89,1.36,-0.64,-0.35,0.74,0.24,
2.204,-0.89,1.36,-0.64,-0.34,0.70,0.26,
2.207,-0.82,1.41,-0.60,-0.34,0.70,0.26,
2.207,-0.82,1.41,-0.60,-0.32,0.66,0.28,
2.21,-0.82,1.41,-0.60,-0.31,0.62,0.30,
2.211,-0.82,1.41,-0.60,-0.30,0.57,0.32,
2.211,-0.79,1.43,-0.52,-0.30,0.57,0.32,
2.213,-0.79,1.43,-0.52,-0.28,0.53,0.35,
2.216,-0.73,1.45,-0.43,-0.28,0.53,0.35,
2.216,-0.73,1.45,-0.43,-0.27,0.49,0.37,
2.219,-0.73,1.45,-0.43,-0.27,0.45,0.39,
2.222,-0.73,1.45,-0.43,-0.26,0.41,0.40,
2.222,-0.69,1.44,-0.43,-0.26,0.41,0.40,
2.223,-0.69,1.44,-0.43,-0.25,0.38,0.42,
2.227,-0.69,1.44,-0.43,-0.24,0.35,0.43,
2.228,-0.56,1.46,-0.47,-0.24,0.35,0.43,
2.228,-0.56,1.46,-0.47,-0.24,0.32,0.45,
2.231,-0.56,1.46,-0.47,-0.23,0.30,0.46,
2.231,-0.41,1.44,-0.45,-0.23,0.30,0.46,
2.233,-0.41,1.44,-0.45,-0.22,0.27,0.47,
2.235,-0.24,1.40,-0.47,-0.22,0.27,0.47,
2.236,-0.24,1.40,-0.47,-0.21,0.26,0.48,
2.237,-0.24,1.40,-0.47,-0.20,0.24,0.49,
2.241,-0.10,1.41,-0.48,-0.20,0.24,0.49,
2.241,-0.10,1.41,-0.48,-0.20,0.23,0.50,
2.245,-0.10,1.41,-0.48,-0.19,0.21,0.50,
2.246,0.02,1.47,-0.47,-0.19,0.21,0.50,
2.246,0.02,1.47,-0.47,-0.18,0.20,0.51,
2.248,0.02,1.47,-0.47,-0.17,0.18,0.52,
2.25,0.02,1.47,-0.47,-0.16,0.17,0.52,
2.251,0.09,1.53,-0.39,-0.16,0.17,0.52,
2.253,0.09,1.53,-0.39,-0.15,0.17,0.53,
2.255,0.18,1.63,-0.38,-0.15,0.17,0.53,
2.256,0.18,1.63,-0.38,-0.15,0.16,0.54,
2.257,0.18,1.63,-0.38,-0.14,0.16,0.54,
2.261,0.24,1.74,-0.42,-0.14,0.16,0.54,
2.261,0.24,1.74,-0.42,-0.14,0.17,0.55,
2.262,0.24,1.74,-0.42,-0.13,0.18,0.55,
2.264,0.31,1.86,-0.50,-0.13,0.18,0.55,
2.264,0.31,1.86,-0.50,-0.13,0.20,0.55,
2.266,0.31,1.86,-0.50,-0.13,0.21,0.55,
2.269,0.31,1.86,-0.50,-0.13,0.23,0.56,
2.269,0.35,1.95,-0.63,-0.13,0.23,0.56,
2.272,0.35,1.95,-0.63,-0.14,0.26,0.56,
2.275,0.35,1.95,-0.63,-0.14,0.28,0.56,
2.275,0.39,2.02,-0.73,-0.14,0.28,0.56,
2.277,0.39,2.02,-0.73,-0.15,0.30,0.56,
2.279,0.39,2.02,-0.73,-0.16,0.32,0.55,
2.28,0.46,2.07,-0.79,-0.16,0.32,0.55,
2.281,0.46,2.07,-0.79,-0.16,0.34,0.55,
2.284,0.56,2.11,-0.81,-0.16,0.34,0.55,
2.285,0.56,2.11,-0.81,-0.17,0.36,0.54,
2.286,0.56,2.11,-0.81,-0.17,0.37,0.53,
2.289,0.65,2.15,-0.76,-0.17,0.37,0.53,
2.29,0.65,2.15,-0.76,-0.18,0.38,0.52,
2.291,0.65,2.15,-0.76,-0.19,0.39,0.51,
2.294,0.76,2.14,-0.70,-0.19,0.39,0.51,
2.295,0.76,2.14,-0.70,-0.19,0.39,0.50,
2.296,0.76,2.14,-0.70,-0.19,0.39,0.49,
2.298,0.86,2.09,-0.62,-0.19,0.39,0.49,
2.299,0.86,2.09,-0.62,-0.19,0.39,0.47,
2.301,0.86,2.09,-0.62,-0.19,0.39,0.46,
2.303,0.92,2.05,-0.55,-0.19,0.39,0.46,
2.303,0.92,2.05,-0.55,-0.19,0.38,0.45,
2.306,0.92,2.05,-0.55,-0.19,0.38,0.44,
2.309,0.92,2.05,-0.55,-0.18,0.37,0.44,
2.31,0.98,2.01,-0.49,-0.18,0.37,0.44,
2.311,0.98,2.01,-0.49,-0.17,0.37,0.43,
2.313,0.98,2.01,-0.49,-0.17,0.37,0.43,
2.313,0.97,2.02,-0.43,-0.17,0.37,0.43,
2.315,0.97,2.02,-0.43,-0.16,0.36,0.43,
2.318,0.94,2.03,-0.37,-0.16,0.36,0.43,
2.319,0.94,2.03,-0.37,-0.14,0.35,0.43,
2.32,0.94,2.03,-0.37,-0.13,0.34,0.44,
2.322,0.96,2.06,-0.31,-0.13,0.34,0.44,
2.323,0.96,2.06,-0.31,-0.12,0.33,0.44,
2.325,0.96,2.06,-0.31,-0.10,0.32,0.44,
2.327,0.96,2.06,-0.31,-0.08,0.31,0.44,
2.328,1.02,2.01,-0.25,-0.08,0.31,0.44,
2.33,1.02,2.01,-0.25,-0.06,0.29,0.45,
2.333,1.14,1.92,-0.20,-0.06,0.29,0.45,
2.333,1.14,1.92,-0.20,-0.05,0.28,0.44,
2.334,1.14,1.92,-0.20,-0.03,0.26,0.44,
2.338,1.14,1.92,-0.20,-0.00,0.24,0.44,
2.338,1.31,1.84,-0.17,-0.00,0.24,0.44,
2.339,1.31,1.84,-0.17,0.02,0.22,0.44,
2.343,1.50,1.77,-0.11,0.02,0.22,0.44,
2.344,1.50,1.77,-0.11,0.04,0.19,0.43,
2.35,1.50,1.77,-0.11,0.06,0.17,0.43,
2.351,1.50,1.77,-0.11,0.09,0.15,0.42,
2.351,1.74,1.60,-0.10,0.09,0.15,0.42,
2.351,1.74,1.60,-0.10,0.11,0.12,0.42,
2.352,1.98,1.41,-0.13,0.11,0.12,0.42,
2.352,1.98,1.41,-0.13,0.13,0.10,0.41,
2.355,1.98,1.41,-0.13,0.15,0.07,0.41,
2.358,1.98,1.41,-0.13,0.17,0.04,0.41,
2.359,2.18,1.23,-0.10,0.17,0.04,0.41,
2.359,2.18,1.23,-0.10,0.19,0.01,0.41,
2.362,2.18,1.23,-0.10,0.21,-0.01,0.41,
2.362,2.32,1.06,-0.07,0.21,-0.01,0.41,
2.363,2.32,1.06,-0.07,0.24,-0.04,0.41,
2.366,2.32,1.06,-0.07,0.26,-0.06,0.41,
2.366,2.46,0.90,-0.06,0.26,-0.06,0.41,
2.368,2.46,0.90,-0.06,0.28,-0.08,0.41,
2.372,2.46,0.90,-0.06,0.30,-0.10,0.41,
2.372,2.60,0.78,-0.06,0.30,-0.10,0.41,
2.373,2.60,0.78,-0.06,0.32,-0.12,0.41,
2.379,2.60,0.78,-0.06,0.34,-0.13,0.41,
2.379,2.76,0.64,-0.08,0.34,-0.13,0.41,
2.38,2.76,0.64,-0.08,0.36,-0.15,0.41,
2.381,2.76,0.64,-0.08,0.38,-0.16,0.41,
2.381,2.94,0.51,-0.14,0.38,-0.16,0.41,
2.384,2.94,0.51,-0.14,0.40,-0.17,0.41,
2.386,3.07,0.38,-0.18,0.40,-0.17,0.41,
2.387,3.07,0.38,-0.18,0.42,-0.19,0.42,
2.389,3.07,0.38,-0.18,0.44,-0.20,0.42,
2.391,3.15,0.33,-0.21,0.44,-0.20,0.42,
2.391,3.15,0.33,-0.21,0.45,-0.21,0.42,
2.393,3.15,0.33,-0.21,0.47,-0.23,0.42,
2.395,3.26,0.25,-0.24,0.47,-0.23,0.42,
2.395,3.26,0.25,-0.24,0.48,-0.24,0.42,
2.398,3.26,0.25,-0.24,0.49,-0.25,0.42,
2.401,3.44,0.16,-0.29,0.49,-0.25,0.42,
2.401,3.44,0.16,-0.29,0.50,-0.27,0.41,
2.403,3.44,0.16,-0.29,0.51,-0.28,0.41,
2.405,3.70,-0.02,-0.38,0.51,-0.28,0.41,
2.406,3.70,-0.02,-0.38,0.52,-0.30,0.40,
2.408,3.70,-0.02,-0.38,0.52,-0.32,0.39,
2.41,3.70,-0.02,-0.38,0.52,-0.34,0.38,
2.411,4.02,-0.23,-0.47,0.52,-0.34,0.38,
2.412,4.02,-0.23,-0.47,0.52,-0.36,0.36,
2.414,4.32,-0.45,-0.54,0.52,-0.36,0.36,
2.414,4.32,-0.45,-0.54,0.51,-0.38,0.35,
2.417,4.32,-0.45,-0.54,0.51,-0.40,0.33,
2.42,4.57,-0.65,-0.60,0.51,-0.40,0.33,
2.42,4.57,-0.65,-0.60,0.50,-0.42,0.31,
2.422,4.57,-0.65,-0.60,0.49,-0.44,0.29,
2.426,4.57,-0.65,-0.60,0.48,-0.46,0.27,
2.427,4.78,-0.82,-0.64,0.48,-0.46,0.27,
2.427,4.78,-0.82,-0.64,0.47,-0.48,0.26,
2.429,4.93,-0.93,-0.67,0.47,-0.48,0.26,
2.43,4.93,-0.93,-0.67,0.45,-0.50,0.24,
2.431,4.93,-0.93,-0.67,0.44,-0.51,0.23,
2.434,4.93,-0.93,-0.67,0.42,-0.52,0.21,
2.434,5.03,-0.98,-0.75,0.42,-0.52,0.21,
2.437,5.03,-0.98,-0.75,0.41,-0.53,0.20,
2.439,5.16,-1.00,-0.79,0.41,-0.53,0.20,
2.44,5.16,-1.00,-0.79,0.39,-0.53,0.19,
2.442,5.16,-1.00,-0.79,0.38,-0.53,0.18,
2.444,5.21,-0.97,-0.83,0.38,-0.53,0.18,
2.444,5.21,-0.97,-0.83,0.37,-0.53,0.17,
2.446,5.21,-0.97,-0.83,0.35,-0.52,0.16,
2.448,5.21,-0.97,-0.83,0.34,-0.51,0.15,
2.448,5.26,-0.93,-0.88,0.34,-0.51,0.15,
2.451,5.26,-0.93,-0.88,0.32,-0.49,0.14,
2.454,5.31,-0.84,-0.91,0.32,-0.49,0.14,
2.454,5.31,-0.84,-0.91,0.31,-0.48,0.13,
2.456,5.31,-0.84,-0.91,0.29,-0.46,0.12,
2.459,5.35,-0.78,-0.93,0.29,-0.46,0.12,
2.46,5.35,-0.78,-0.93,0.28,-0.44,0.11,
2.461,5.35,-0.78,-0.93,0.26,-0.42,0.09,
2.464,5.35,-0.78,-0.93,0.25,-0.39,0.08,
2.464,5.35,-0.66,-0.94,0.25,-0.39,0.08,
2.465,5.35,-0.66,-0.94,0.23,-0.37,0.06,
2.469,5.35,-0.66,-0.94,0.21,-0.34,0.05,
2.469,5.32,-0.55,-0.92,0.21,-0.34,0.05,
2.47,5.32,-0.55,-0.92,0.19,-0.31,0.03,
2.474,5.32,-0.55,-0.92,0.17,-0.27,0.01,
2.474,5.20,-0.34,-0.90,0.17,-0.27,0.01,
2.48,5.20,-0.34,-0.90,0.15,-0.24,-0.01,
2.48,4.99,-0.12,-0.89,0.15,-0.24,-0.01,
2.481,4.99,-0.12,-0.89,0.13,-0.20,-0.03,
2.481,4.99,-0.12,-0.89,0.11,-0.16,-0.06,
2.483,4.69,0.21,-0.88,0.11,-0.16,-0.06,
2.483,4.69,0.21,-0.88,0.09,-0.12,-0.08,
2.484,4.69,0.21,-0.88,0.07,-0.08,-0.10,
2.487,4.36,0.59,-0.87,0.07,-0.08,-0.10,
2.487,4.36,0.59,-0.87,0.05,-0.04,-0.13,
2.49,4.36,0.59,-0.87,0.03,0.01,-0.15,
2.492,4.36,0.59,-0.87,0.01,0.05,-0.18,
2.493,4.04,0.96,-0.84,0.01,0.05,-0.18,
2.495,4.04,0.96,-0.84,-0.01,0.09,-0.21,
2.497,4.04,0.96,-0.84,-0.02,0.14,-0.24,
2.497,3.69,1.35,-0.79,-0.02,0.14,-0.24,
2.499,3.69,1.35,-0.79,-0.05,0.19,-0.26,
2.503,3.26,1.62,-0.81,-0.05,0.19,-0.26,
2.503,3.26,1.62,-0.81,-0.06,0.23,-0.29,
2.504,3.26,1.62,-0.81,-0.08,0.27,-0.32,
2.507,2.87,1.98,-0.71,-0.08,0.27,-0.32,
2.508,2.87,1.98,-0.71,-0.10,0.30,-0.35,
2.509,2.87,1.98,-0.71,-0.11,0.34,-0.38,
2.513,2.56,2.42,-0.57,-0.11,0.34,-0.38,
2.513,2.56,2.42,-0.57,-0.12,0.37,-0.41,
2.514,2.56,2.42,-0.57,-0.13,0.40,-0.44,
2.517,2.23,2.72,-0.46,-0.13,0.40,-0.44,
2.517,2.23,2.72,-0.46,-0.14,0.43,-0.48,
2.519,2.23,2.72,-0.46,-0.14,0.46,-0.51,
2.522,1.97,2.96,-0.37,-0.14,0.46,-0.51,
2.522,1.97,2.96,-0.37,-0.15,0.48,-0.55,
2.524,1.97,2.96,-0.37,-0.15,0.50,-0.59,
2.526,1.69,3.18,-0.26,-0.15,0.50,-0.59,
2.527,1.69,3.18,-0.26,-0.15,0.52,-0.63,
2.529,1.69,3.18,-0.26,-0.14,0.54,-0.67,
2.531,1.39,3.27,-0.21,-0.14,0.54,-0.67,
2.531,1.39,3.27,-0.21,-0.14,0.56,-0.71,
2.533,1.39,3.27,-0.21,-0.13,0.57,-0.76,
2.536,1.10,3.26,-0.05,-0.13,0.57,-0.76,
2.537,1.10,3.26,-0.05,-0.11,0.57,-0.81,
2.539,1.10,3.26,-0.05,-0.10,0.57,-0.86,
2.54,0.83,3.16,0.11,-0.10,0.57,-0.86,
2.542,0.83,3.16,0.11,-0.09,0.57,-0.91,
2.543,0.83,3.16,0.11,-0.07,0.56,-0.96,
2.546,0.83,3.16,0.11,-0.06,0.55,-1.00,
2.546,0.57,3.08,0.18,-0.06,0.55,-1.00,
2.548,0.57,3.08,0.18,-0.04,0.54,-1.05,
2.55,0.29,3.02,0.25,-0.04,0.54,-1.05,
2.551,0.29,3.02,0.25,-0.03,0.52,-1.10,
2.553,0.29,3.02,0.25,-0.02,0.49,-1.14,
2.555,0.00,2.91,0.28,-0.02,0.49,-1.14,
2.555,0.00,2.91,0.28,-0.00,0.47,-1.18,
2.559,0.00,2.91,0.28,0.01,0.43,-1.22,
2.56,0.00,2.91,0.28,0.02,0.40,-1.25,
2.561,-0.26,2.72,0.37,0.02,0.40,-1.25,
2.563,-0.26,2.72,0.37,0.04,0.36,-1.29,
2.565,-0.44,2.51,0.42,0.04,0.36,-1.29,
2.565,-0.44,2.51,0.42,0.05,0.32,-1.32,
2.568,-0.44,2.51,0.42,0.07,0.28,-1.35,
2.571,-0.44,2.51,0.42,0.09,0.23,-1.37,
2.572,-0.65,2.28,0.46,0.09,0.23,-1.37,
2.573,-0.65,2.28,0.46,0.11,0.19,-1.39,
2.577,-0.83,2.04,0.50,0.11,0.19,-1.39,
2.579,-0.83,2.04,0.50,0.13,0.15,-1.41,
2.579,-0.83,2.04,0.50,0.15,0.10,-1.42,
2.58,-0.83,2.04,0.50,0.17,0.05,-1.43,
2.58,-0.97,1.78,0.48,0.17,0.05,-1.43,
2.581,-0.97,1.78,0.48,0.19,0.00,-1.43,
2.584,-1.10,1.52,0.51,0.19,0.00,-1.43,
2.584,-1.10,1.52,0.51,0.22,-0.05,-1.43,
2.587,-1.10,1.52,0.51,0.24,-0.10,-1.43,
2.59,-1.10,1.52,0.51,0.26,-0.16,-1.43,
2.59,-1.15,1.18,0.48,0.26,-0.16,-1.43,
2.592,-1.15,1.18,0.48,0.28,-0.22,-1.41,
2.593,-1.15,1.18,0.48,0.30,-0.28,-1.40,
2.594,-1.17,0.81,0.48,0.30,-0.28,-1.40,
2.596,-1.17,0.81,0.48,0.32,-0.35,-1.39,
2.598,-1.17,0.81,0.48,0.33,-0.42,-1.37,
2.599,-1.07,0.36,0.50,0.33,-0.42,-1.37,
2.601,-1.07,0.36,0.50,0.35,-0.49,-1.35,
2.604,-0.95,-0.12,0.56,0.35,-0.49,-1.35,
2.605,-0.95,-0.12,0.56,0.36,-0.56,-1.33,
2.606,-0.95,-0.12,0.56,0.37,-0.63,-1.30,
2.609,-0.83,-0.59,0.63,0.37,-0.63,-1.30,
2.61,-0.83,-0.59,0.63,0.38,-0.71,-1.27,
2.611,-0.83,-0.59,0.63,0.40,-0.78,-1.24,
2.614,-0.83,-0.59,0.63,0.41,-0.86,-1.20,
2.614,-0.69,-1.03,0.74,0.41,-0.86,-1.20,
2.615,-0.69,-1.03,0.74,0.42,-0.93,-1.17,
2.618,-0.59,-1.39,0.86,0.42,-0.93,-1.17,
2.618,-0.59,-1.39,0.86,0.43,-1.01,-1.13,
2.621,-0.59,-1.39,0.86,0.44,-1.08,-1.08,
2.624,-0.47,-1.67,1.01,0.44,-1.08,-1.08,
2.626,-0.47,-1.67,1.01,0.45,-1.16,-1.04,
2.627,-0.47,-1.67,1.01,0.47,-1.23,-1.00,
2.63,-0.31,-1.89,1.18,0.47,-1.23,-1.00,
2.631,-0.31,-1.89,1.18,0.48,-1.30,-0.95,
2.631,-0.31,-1.89,1.18,0.50,-1.36,-0.91,
2.633,-0.12,-2.04,1.38,0.50,-1.36,-0.91,
2.634,-0.12,-2.04,1.38,0.53,-1.43,-0.86,
2.636,-0.12,-2.04,1.38,0.55,-1.49,-0.82,
2.638,0.07,-2.17,1.60,0.55,-1.49,-0.82,
2.638,0.07,-2.17,1.60,0.58,-1.55,-0.78,
2.641,0.07,-2.17,1.60,0.61,-1.61,-0.74,
2.642,0.30,-2.26,1.77,0.61,-1.61,-0.74,
2.643,0.30,-2.26,1.77,0.64,-1.66,-0.70,
2.646,0.30,-2.26,1.77,0.67,-1.71,-0.67,
2.647,0.54,-2.35,1.89,0.67,-1.71,-0.67,
2.648,0.54,-2.35,1.89,0.70,-1.76,-0.64,
2.65,0.54,-2.35,1.89,0.73,-1.80,-0.60,
2.652,0.76,-2.42,1.97,0.73,-1.80,-0.60,
2.654,0.76,-2.42,1.97,0.76,-1.83,-0.58,
2.654,0.76,-2.42,1.97,0.78,-1.87,-0.55,
2.657,0.76,-2.42,1.97,0.81,-1.90,-0.53,
2.657,0.95,-2.41,2.01,0.81,-1.90,-0.53,
2.663,0.95,-2.41,2.01,0.84,-1.93,-0.51,
2.664,1.08,-2.35,2.03,0.84,-1.93,-0.51,
2.664,1.08,-2.35,2.03,0.86,-1.95,-0.50,
2.665,1.08,-2.35,2.03,0.88,-1.96,-0.49,
2.667,1.08,-2.35,2.03,0.90,-1.97,-0.48,
2.667,1.18,-2.21,1.99,0.90,-1.97,-0.48,
2.672,1.18,-2.21,1.99,0.91,-1.98,-0.47,
2.672,1.18,-2.21,1.99,0.92,-1.97,-0.46,
2.672,1.27,-2.10,1.91,0.92,-1.97,-0.46,
2.676,1.27,-2.10,1.91,0.94,-1.96,-0.46,
2.677,1.27,-2.10,1.91,0.94,-1.94,-0.46,
2.677,1.34,-1.94,1.76,0.94,-1.94,-0.46,
2.679,1.34,-1.94,1.76,0.95,-1.91,-0.46,
2.681,1.34,-1.94,1.76,0.95,-1.88,-0.46,
2.682,1.38,-1.79,1.62,0.95,-1.88,-0.46,
2.683,1.38,-1.79,1.62,0.95,-1.84,-0.47,
2.686,1.39,-1.61,1.46,0.95,-1.84,-0.47,
2.687,1.39,-1.61,1.46,0.95,-1.79,-0.48,
2.688,1.39,-1.61,1.46,0.94,-1.74,-0.49,
2.692,1.39,-1.61,1.46,0.93,-1.68,-0.49,
2.693,1.36,-1.45,1.27,0.93,-1.68,-0.49,
2.693,1.36,-1.45,1.27,0.91,-1.62,-0.50,
2.697,1.32,-1.24,1.11,0.91,-1.62,-0.50,
2.697,1.32,-1.24,1.11,0.90,-1.55,-0.52,
2.698,1.32,-1.24,1.11,0.88,-1.47,-0.53,
2.7,1.24,-1.03,0.93,0.88,-1.47,-0.53,
2.701,1.24,-1.03,0.93,0.86,-1.40,-0.54,
2.703,1.24,-1.03,0.93,0.83,-1.32,-0.56,
2.705,1.16,-0.83,0.78,0.83,-1.32,-0.56,
2.706,1.16,-0.83,0.78,0.80,-1.23,-0.57,
2.709,1.16,-0.83,0.78,0.77,-1.14,-0.59,
2.71,1.16,-0.83,0.78,0.75,-1.05,-0.61,
2.711,1.07,-0.62,0.63,0.75,-1.05,-0.61,
2.713,1.07,-0.62,0.63,0.71,-0.96,-0.62,
2.715,0.99,-0.46,0.51,0.71,-0.96,-0.62,
2.715,0.99,-0.46,0.51,0.68,-0.87,-0.64,
2.717,0.99,-0.46,0.51,0.65,-0.77,-0.66,
2.72,0.93,-0.32,0.40,0.65,-0.77,-0.66,
2.721,0.93,-0.32,0.40,0.61,-0.67,-0.68,
2.726,0.93,-0.32,0.40,0.58,-0.58,-0.70,
2.726,0.81,-0.19,0.34,0.58,-0.58,-0.70,
2.727,0.81,-0.19,0.34,0.54,-0.48,-0.72,
2.727,0.81,-0.19,0.34,0.51,-0.39,-0.75,
2.73,0.71,-0.10,0.28,0.51,-0.39,-0.75,
2.731,0.71,-0.10,0.28,0.48,-0.29,-0.77,
2.732,0.71,-0.10,0.28,0.45,-0.20,-0.79,
2.734,0.58,-0.03,0.25,0.45,-0.20,-0.79,
2.735,0.58,-0.03,0.25,0.42,-0.11,-0.81,
2.738,0.58,-0.03,0.25,0.39,-0.02,-0.83,
2.74,0.47,0.06,0.25,0.39,-0.02,-0.83,
2.74,0.47,0.06,0.25,0.36,0.06,-0.85,
2.742,0.47,0.06,0.25,0.34,0.14,-0.87,
2.745,0.28,0.09,0.26,0.34,0.14,-0.87,
2.745,0.28,0.09,0.26,0.32,0.21,-0.89,
2.746,0.28,0.09,0.26,0.30,0.28,-0.91,
2.749,0.28,0.09,0.26,0.28,0.34,-0.93,
2.749,0.08,0.12,0.29,0.28,0.34,-0.93,
2.751,0.08,0.12,0.29,0.27,0.40,-0.95,
2.755,-0.12,0.12,0.36,0.27,0.40,-0.95,
2.755,-0.12,0.12,0.36,0.25,0.45,-0.97,
2.756,-0.12,0.12,0.36,0.24,0.49,-0.99,
2.759,-0.30,0.08,0.45,0.24,0.49,-0.99,
2.759,-0.30,0.08,0.45,0.23,0.53,-1.02,
2.761,-0.30,0.08,0.45,0.23,0.55,-1.04,
2.763,-0.30,0.08,0.45,0.23,0.58,-1.07,
2.764,-0.45,0.00,0.55,0.23,0.58,-1.07,
2.765,-0.45,0.00,0.55,0.23,0.59,-1.09,
2.768,-0.59,-0.07,0.64,0.23,0.59,-1.09,
2.768,-0.59,-0.07,0.64,0.23,0.61,-1.11,
2.771,-0.59,-0.07,0.64,0.23,0.62,-1.14,
2.774,-0.73,-0.18,0.70,0.23,0.62,-1.14,
2.775,-0.73,-0.18,0.70,0.24,0.62,-1.16,
2.776,-0.73,-0.18,0.70,0.25,0.62,-1.19,
2.781,-0.92,-0.30,0.74,0.25,0.62,-1.19,
2.781,-0.92,-0.30,0.74,0.26,0.62,-1.21,
2.781,-0.92,-0.30,0.74,0.26,0.62,-1.23,
2.784,-0.92,-0.30,0.74,0.28,0.61,-1.25,
2.784,-1.13,-0.38,0.76,0.28,0.61,-1.25,
2.786,-1.13,-0.38,0.76,0.29,0.60,-1.27,
2.79,-1.13,-0.38,0.76,0.30,0.59,-1.29,
2.79,-1.36,-0.47,0.76,0.30,0.59,-1.29,
2.791,-1.36,-0.47,0.76,0.32,0.58,-1.30,
2.793,-1.36,-0.47,0.76,0.33,0.56,-1.32,
2.794,-1.59,-0.54,0.74,0.33,0.56,-1.32,
2.795,-1.59,-0.54,0.74,0.35,0.54,-1.33,
2.798,-1.83,-0.62,0.73,0.35,0.54,-1.33,
2.798,-1.83,-0.62,0.73,0.36,0.52,-1.35,
2.799,-1.83,-0.62,0.73,0.37,0.50,-1.36,
2.803,-2.07,-0.68,0.72,0.37,0.50,-1.36,
2.803,-2.07,-0.68,0.72,0.38,0.48,-1.37,
2.805,-2.07,-0.68,0.72,0.40,0.45,-1.37,
2.809,-2.32,-0.75,0.68,0.40,0.45,-1.37,
2.809,-2.32,-0.75,0.68,0.41,0.42,-1.38,
2.81,-2.32,-0.75,0.68,0.42,0.39,-1.38,
2.812,-2.32,-0.75,0.68,0.43,0.36,-1.38,
2.813,-2.55,-0.83,0.63,0.43,0.36,-1.38,
2.814,-2.55,-0.83,0.63,0.43,0.34,-1.38,
2.817,-2.78,-0.90,0.56,0.43,0.34,-1.38,
2.817,-2.78,-0.90,0.56,0.44,0.31,-1.37,
2.819,-2.78,-0.90,0.56,0.45,0.28,-1.36,
2.822,-3.02,-0.96,0.52,0.45,0.28,-1.36,
2.822,-3.02,-0.96,0.52,0.45,0.25,-1.35,
2.825,-3.02,-0.96,0.52,0.46,0.23,-1.34,
2.827,-3.25,-1.00,0.45,0.46,0.23,-1.34,
2.828,-3.25,-1.00,0.45,0.46,0.20,-1.32,
2.829,-3.25,-1.00,0.45,0.47,0.18,-1.30,
2.832,-3.43,-1.04,0.39,0.47,0.18,-1.30,
2.833,-3.43,-1.04,0.39,0.47,0.16,-1.28,
2.834,-3.43,-1.04,0.39,0.47,0.13,-1.26,
2.836,-3.43,-1.04,0.39,0.47,0.11,-1.24,
2.836,-3.60,-1.09,0.33,0.47,0.11,-1.24,
2.839,-3.60,-1.09,0.33,0.47,0.10,-1.21,
2.842,-3.75,-1.09,0.29,0.47,0.10,-1.21,
2.843,-3.75,-1.09,0.29,0.47,0.07,-1.19,
2.843,-3.75,-1.09,0.29,0.47,0.05,-1.16,
2.847,-3.91,-1.10,0.26,0.47,0.05,-1.16,
2.847,-3.91,-1.10,0.26,0.47,0.04,-1.13,
2.848,-3.91,-1.10,0.26,0.47,0.02,-1.10,
2.851,-4.00,-1.11,0.25,0.47,0.02,-1.10,
2.851,-4.00,-1.11,0.25,0.46,-0.00,-1.07,
2.854,-4.00,-1.11,0.25,0.46,-0.02,-1.04,
2.856,-4.09,-1.14,0.24,0.46,-0.02,-1.04,
2.857,-4.09,-1.14,0.24,0.46,-0.04,-1.01,
2.859,-4.09,-1.14,0.24,0.45,-0.05,-0.98,
2.861,-4.13,-1.20,0.21,0.45,-0.05,-0.98,
2.862,-4.13,-1.20,0.21,0.45,-0.06,-0.95,
2.863,-4.13,-1.20,0.21,0.44,-0.07,-0.93,
2.866,-4.13,-1.20,0.21,0.44,-0.08,-0.90,
2.867,-4.12,-1.30,0.14,0.44,-0.08,-0.90,
2.869,-4.12,-1.30,0.14,0.43,-0.09,-0.87,
2.87,-4.07,-1.40,0.07,0.43,-0.09,-0.87,
2.871,-4.07,-1.40,0.07,0.42,-0.09,-0.85,
2.873,-4.07,-1.40,0.07,0.42,-0.09,-0.82,
2.879,-4.05,-1.43,0.04,0.42,-0.09,-0.82,
2.879,-4.05,-1.43,0.04,0.41,-0.08,-0.80,
2.879,-4.05,-1.43,0.04,0.40,-0.08,-0.77,
2.882,-4.04,-1.41,0.03,0.40,-0.08,-0.77,
2.882,-4.04,-1.41,0.03,0.39,-0.08,-0.74,
2.883,-4.04,-1.41,0.03,0.38,-0.07,-0.72,
2.885,-4.01,-1.40,0.02,0.38,-0.07,-0.72,
2.885,-4.01,-1.40,0.02,0.37,-0.07,-0.70,
2.887,-4.01,-1.40,0.02,0.36,-0.06,-0.67,
2.89,-3.97,-1.44,-0.02,0.36,-0.06,-0.67,
2.89,-3.97,-1.44,-0.02,0.35,-0.05,-0.65,
2.893,-3.97,-1.44,-0.02,0.34,-0.05,-0.62,
2.895,-3.91,-1.49,-0.05,0.34,-0.05,-0.62,
2.895,-3.91,-1.49,-0.05,0.33,-0.04,-0.60,
2.896,-3.91,-1.49,-0.05,0.32,-0.03,-0.58,
2.899,-3.81,-1.55,-0.06,0.32,-0.03,-0.58,
2.9,-3.81,-1.55,-0.06,0.30,-0.03,-0.55,
2.902,-3.81,-1.55,-0.06,0.29,-0.02,-0.54,
2.904,-3.73,-1.63,-0.12,0.29,-0.02,-0.54,
2.905,-3.73,-1.63,-0.12,0.27,-0.01,-0.52,
2.907,-3.73,-1.63,-0.12,0.25,-0.00,-0.50,
2.909,-3.73,-1.63,-0.12,0.24,0.01,-0.48,
2.91,-3.62,-1.72,-0.16,0.24,0.01,-0.48,
2.911,-3.62,-1.72,-0.16,0.22,0.01,-0.46,
2.914,-3.53,-1.79,-0.22,0.22,0.01,-0.46,
2.914,-3.53,-1.79,-0.22,0.20,0.02,-0.44,
2.917,-3.53,-1.79,-0.22,0.18,0.03,-0.42,
2.919,-3.43,-1.89,-0.22,0.18,0.03,-0.42,
2.919,-3.43,-1.89,-0.22,0.16,0.03,-0.40,
2.921,-3.43,-1.89,-0.22,0.14,0.03,-0.38,
2.925,-3.43,-1.89,-0.22,0.13,0.03,-0.36,
2.925,-3.30,-1.99,-0.22,0.13,0.03,-0.36,
2.926,-3.30,-1.99,-0.22,0.11,0.03,-0.34,
2.929,-3.21,-2.11,-0.21,0.11,0.03,-0.34,
2.929,-3.21,-2.11,-0.21,0.09,0.02,-0.32,
2.93,-3.21,-2.11,-0.21,0.06,0.02,-0.30,
2.934,-3.11,-2.22,-0.20,0.06,0.02,-0.30,
2.934,-3.11,-2.22,-0.20,0.05,0.02,-0.28,
2.935,-3.11,-2.22,-0.20,0.03,0.01,-0.26,
2.938,-2.98,-2.33,-0.19,0.03,0.01,-0.26,
2.939,-2.98,-2.33,-0.19,0.01,0.00,-0.24,
2.942,-2.98,-2.33,-0.19,-0.01,-0.01,-0.22,
2.943,-2.85,-2.46,-0.21,-0.01,-0.01,-0.22,
2.943,-2.85,-2.46,-0.21,-0.04,-0.02,-0.19,
2.946,-2.85,-2.46,-0.21,-0.06,-0.03,-0.17,
2.948,-2.85,-2.46,-0.21,-0.08,-0.04,-0.15,
2.949,-2.68,-2.60,-0.18,-0.08,-0.04,-0.15,
2.95,-2.68,-2.60,-0.18,-0.10,-0.05,-0.13,
2.953,-2.53,-2.72,-0.17,-0.10,-0.05,-0.13,
2.953,-2.53,-2.72,-0.17,-0.12,-0.06,-0.11,
2.956,-2.53,-2.72,-0.17,-0.15,-0.08,-0.10,
2.959,-2.53,-2.72,-0.17,-0.17,-0.09,-0.08,
2.959,-2.34,-2.88,-0.18,-0.17,-0.09,-0.08,
2.961,-2.34,-2.88,-0.18,-0.20,-0.10,-0.06,
2.962,-2.18,-3.00,-0.20,-0.20,-0.10,-0.06,
2.963,-2.18,-3.00,-0.20,-0.22,-0.11,-0.05,
2.965,-2.18,-3.00,-0.20,-0.24,-0.11,-0.03,
2.967,-2.03,-3.14,-0.20,-0.24,-0.11,-0.03,
2.968,-2.03,-3.14,-0.20,-0.27,-0.12,-0.02,
2.97,-2.03,-3.14,-0.20,-0.29,-0.12,-0.01,
2.973,-1.90,-3.23,-0.20,-0.29,-0.12,-0.01,
2.973,-1.90,-3.23,-0.20,-0.32,-0.12,0.01,
2.975,-1.90,-3.23,-0.20,-0.35,-0.12,0.02,
2.984,-1.80,-3.28,-0.22,-0.35,-0.12,0.02,
2.985,-1.80,-3.28,-0.22,-0.38,-0.12,0.03,
2.985,-1.80,-3.28,-0.22,-0.41,-0.12,0.04,
2.985,-1.80,-3.28,-0.22,-0.44,-0.11,0.06,
2.985,-1.73,-3.31,-0.26,-0.44,-0.11,0.06,
2.986,-1.73,-3.31,-0.26,-0.47,-0.10,0.07,
2.986,-1.65,-3.32,-0.26,-0.47,-0.10,0.07,
2.987,-1.65,-3.32,-0.26,-0.50,-0.09,0.08,
2.99,-1.65,-3.32,-0.26,-0.53,-0.08,0.10,
2.997,-1.62,-3.28,-0.24,-0.53,-0.08,0.10,
2.998,-1.62,-3.28,-0.24,-0.56,-0.06,0.11,
2.998,-1.62,-3.28,-0.24,-0.59,-0.05,0.13,
2.998,-1.62,-3.28,-0.24,-0.61,-0.03,0.15,
2.998,-1.61,-3.24,-0.19,-0.61,-0.03,0.15,
2.999,-1.61,-3.24,-0.19,-0.64,-0.01,0.16,
3.002,-1.59,-3.19,-0.15,-0.64,-0.01,0.16,
3.002,-1.59,-3.19,-0.15,-0.67,0.01,0.18,
3.003,-1.59,-3.19,-0.15,-0.69,0.03,0.20,
3.006,-1.56,-3.15,-0.12,-0.69,0.03,0.20,
3.007,-1.56,-3.15,-0.12,-0.72,0.05,0.22,
3.009,-1.56,-3.15,-0.12,-0.74,0.07,0.24,
3.011,-1.43,-3.19,-0.06,-0.74,0.07,0.24,
3.011,-1.43,-3.19,-0.06,-0.76,0.09,0.26,
3.014,-1.43,-3.19,-0.06,-0.79,0.11,0.27,
3.016,-1.43,-3.19,-0.06,-0.82,0.13,0.29,
3.017,-1.26,-3.29,-0.04,-0.82,0.13,0.29,
3.018,-1.26,-3.29,-0.04,-0.85,0.14,0.30,
3.021,-1.04,-3.44,-0.04,-0.85,0.14,0.30,
3.021,-1.04,-3.44,-0.04,-0.87,0.16,0.32,
3.024,-1.04,-3.44,-0.04,-0.90,0.17,0.33,
3.026,-0.82,-3.63,-0.04,-0.90,0.17,0.33,
3.027,-0.82,-3.63,-0.04,-0.93,0.19,0.35,
3.028,-0.82,-3.63,-0.04,-0.97,0.20,0.36,
3.031,-0.64,-3.82,-0.04,-0.97,0.20,0.36,
3.032,-0.64,-3.82,-0.04,-1.00,0.21,0.38,
3.032,-0.64,-3.82,-0.04,-1.04,0.23,0.39,
3.035,-0.48,-3.95,-0.01,-1.04,0.23,0.39,
3.035,-0.48,-3.95,-0.01,-1.07,0.24,0.41,
3.037,-0.48,-3.95,-0.01,-1.10,0.25,0.42,
3.04,-0.34,-4.08,0.02,-1.10,0.25,0.42,
3.04,-0.34,-4.08,0.02,-1.14,0.26,0.44,
3.042,-0.34,-4.08,0.02,-1.17,0.26,0.45,
3.045,-0.34,-4.08,0.02,-1.20,0.27,0.47,
3.045,-0.19,-4.23,0.08,-1.20,0.27,0.47,
3.047,-0.19,-4.23,0.08,-1.23,0.27,0.49,
3.05,-0.19,-4.23,0.08,-1.26,0.27,0.51,
3.051,0.01,-4.34,0.13,-1.26,0.27,0.51,
3.052,0.01,-4.34,0.13,-1.29,0.27,0.52,
3.055,0.19,-4.53,0.21,-1.29,0.27,0.52,
3.055,0.19,-4.53,0.21,-1.32,0.27,0.54,
3.058,0.19,-4.53,0.21,-1.35,0.26,0.57,
3.059,0.39,-4.73,0.32,-1.35,0.26,0.57,
3.062,0.39,-4.73,0.32,-1.38,0.26,0.59,
3.063,0.39,-4.73,0.32,-1.41,0.25,0.61,
3.065,0.54,-4.87,0.43,-1.41,0.25,0.61,
3.065,0.54,-4.87,0.43,-1.43,0.24,0.64,
3.066,0.54,-4.87,0.43,-1.46,0.24,0.67,
3.069,0.66,-4.99,0.52,-1.46,0.24,0.67,
3.07,0.66,-4.99,0.52,-1.48,0.23,0.70,
3.072,0.66,-4.99,0.52,-1.51,0.23,0.74,
3.078,0.70,-5.04,0.63,-1.51,0.23,0.74,
3.079,0.70,-5.04,0.63,-1.53,0.23,0.78,
3.079,0.70,-5.04,0.63,-1.54,0.23,0.82,
3.08,0.67,-4.96,0.75,-1.54,0.23,0.82,
3.08,0.67,-4.96,0.75,-1.55,0.23,0.87,
3.082,0.67,-4.96,0.75,-1.56,0.24,0.91,
3.084,0.67,-4.96,0.75,-1.57,0.25,0.96,
3.084,0.58,-4.78,0.91,-1.57,0.25,0.96,
3.086,0.58,-4.78,0.91,-1.57,0.26,1.01,
3.089,0.42,-4.47,1.10,-1.57,0.26,1.01,
3.089,0.42,-4.47,1.10,-1.56,0.27,1.07,
3.091,0.42,-4.47,1.10,-1.55,0.29,1.13,
3.093,0.19,-4.06,1.30,-1.55,0.29,1.13,
3.093,0.19,-4.06,1.30,-1.54,0.31,1.19,
3.095,0.19,-4.06,1.30,-1.52,0.33,1.25,
3.099,-0.10,-3.53,1.52,-1.52,0.33,1.25,
3.099,-0.10,-3.53,1.52,-1.49,0.35,1.31,
3.1,-0.10,-3.53,1.52,-1.46,0.37,1.37,
3.103,-0.10,-3.53,1.52,-1.42,0.39,1.43,
3.104,-0.43,-2.92,1.71,-1.42,0.39,1.43,
3.105,-0.43,-2.92,1.71,-1.39,0.42,1.49,
3.109,-0.68,-2.28,1.85,-1.39,0.42,1.49,
3.109,-0.68,-2.28,1.85,-1.35,0.44,1.55,
3.11,-0.68,-2.28,1.85,-1.31,0.47,1.60,
3.112,-0.87,-1.64,1.93,-1.31,0.47,1.60,
3.113,-0.87,-1.64,1.93,-1.27,0.49,1.64,
3.115,-0.87,-1.64,1.93,-1.22,0.52,1.68,
3.118,-0.87,-1.64,1.93,-1.17,0.54,1.72,
3.118,-0.97,-0.98,2.00,-1.17,0.54,1.72,
3.119,-0.97,-0.98,2.00,-1.13,0.57,1.74,
3.123,-0.97,-0.34,2.07,-1.13,0.57,1.74,
3.123,-0.97,-0.34,2.07,-1.07,0.59,1.76,
3.125,-0.97,-0.34,2.07,-1.02,0.62,1.78,
3.128,-0.91,0.21,2.10,-1.02,0.62,1.78,
3.128,-0.91,0.21,2.10,-0.97,0.64,1.78,
3.129,-0.91,0.21,2.10,-0.91,0.66,1.78,
3.133,-0.78,0.73,2.10,-0.91,0.66,1.78,
3.133,-0.78,0.73,2.10,-0.86,0.69,1.77,
3.134,-0.78,0.73,2.10,-0.80,0.71,1.75,
3.137,-0.63,1.20,2.07,-0.80,0.71,1.75,
3.138,-0.63,1.20,2.07,-0.74,0.73,1.72,
3.139,-0.63,1.20,2.07,-0.68,0.75,1.69,
3.142,-0.63,1.20,2.07,-0.62,0.77,1.64,
3.143,-0.45,1.63,2.00,-0.62,0.77,1.64,
3.145,-0.45,1.63,2.00,-0.57,0.78,1.60,
3.146,-0.26,2.02,1.88,-0.57,0.78,1.60,
3.146,-0.26,2.02,1.88,-0.51,0.80,1.55,
3.148,-0.26,2.02,1.88,-0.46,0.81,1.49,
3.151,-0.08,2.28,1.74,-0.46,0.81,1.49,
3.151,-0.08,2.28,1.74,-0.40,0.83,1.43,
3.154,-0.08,2.28,1.74,-0.34,0.84,1.36,
3.156,0.02,2.61,1.53,-0.34,0.84,1.36,
3.157,0.02,2.61,1.53,-0.29,0.86,1.29,
3.159,0.02,2.61,1.53,-0.23,0.87,1.22,
3.161,0.12,2.86,1.30,-0.23,0.87,1.22,
3.162,0.12,2.86,1.30,-0.18,0.88,1.14,
3.163,0.12,2.86,1.30,-0.13,0.90,1.07,
3.165,0.22,2.98,1.00,-0.13,0.90,1.07,
3.166,0.22,2.98,1.00,-0.08,0.91,0.99,
3.168,0.22,2.98,1.00,-0.03,0.91,0.91,
3.171,0.23,3.03,0.78,-0.03,0.91,0.91,
3.172,0.23,3.03,0.78,0.01,0.90,0.83,
3.173,0.23,3.03,0.78,0.06,0.89,0.76,
3.179,0.23,3.03,0.78,0.10,0.87,0.69,
3.18,0.20,3.03,0.59,0.10,0.87,0.69,
3.18,0.20,3.03,0.59,0.14,0.84,0.63,
3.181,0.11,3.02,0.37,0.14,0.84,0.63,
3.181,0.11,3.02,0.37,0.18,0.81,0.56,
3.183,0.11,3.02,0.37,0.22,0.78,0.51,
3.186,0.01,2.91,0.14,0.22,0.78,0.51,
3.186,0.01,2.91,0.14,0.26,0.74,0.45,
3.187,0.01,2.91,0.14,0.29,0.69,0.41,
3.191,0.01,2.91,0.14,0.32,0.65,0.36,
3.191,-0.07,2.76,-0.08,0.32,0.65,0.36,
3.192,-0.07,2.76,-0.08,0.36,0.60,0.32,
3.195,-0.13,2.60,-0.29,0.36,0.60,0.32,
3.195,-0.13,2.60,-0.29,0.39,0.55,0.29,
3.197,-0.13,2.60,-0.29,0.42,0.50,0.25,
3.199,-0.13,2.60,-0.29,0.45,0.44,0.22,
3.2,-0.22,2.38,-0.50,0.45,0.44,0.22,
3.202,-0.22,2.38,-0.50,0.48,0.39,0.20,
3.204,-0.27,2.20,-0.77,0.48,0.39,0.20,
3.204,-0.27,2.20,-0.77,0.50,0.34,0.17,
3.206,-0.27,2.20,-0.77,0.52,0.28,0.15,
3.21,-0.28,1.98,-0.98,0.52,0.28,0.15,
3.21,-0.28,1.98,-0.98,0.54,0.22,0.13,
3.211,-0.28,1.98,-0.98,0.55,0.16,0.11,
3.214,-0.28,1.71,-1.17,0.55,0.16,0.11,
3.215,-0.28,1.71,-1.17,0.56,0.09,0.10,
3.217,-0.28,1.71,-1.17,0.57,0.03,0.09,
3.22,-0.22,1.37,-1.35,0.57,0.03,0.09,
3.22,-0.22,1.37,-1.35,0.58,-0.04,0.08,
3.222,-0.22,1.37,-1.35,0.58,-0.11,0.07,
3.225,-0.10,1.01,-1.52,0.58,-0.11,0.07,
3.225,-0.10,1.01,-1.52,0.58,-0.18,0.06,
3.227,-0.10,1.01,-1.52,0.57,-0.25,0.06,
3.229,0.04,0.66,-1.67,0.57,-0.25,0.06,
3.229,0.04,0.66,-1.67,0.56,-0.32,0.05,
3.231,0.04,0.66,-1.67,0.55,-0.38,0.05,
3.234,0.19,0.34,-1.81,0.55,-0.38,0.05,
3.234,0.19,0.34,-1.81,0.53,-0.45,0.05,
3.236,0.19,0.34,-1.81,0.51,-0.51,0.05,
3.239,0.35,0.06,-1.95,0.51,-0.51,0.05,
3.239,0.35,0.06,-1.95,0.48,-0.57,0.06,
3.24,0.35,0.06,-1.95,0.45,-0.62,0.06,
3.244,0.48,-0.18,-2.05,0.45,-0.62,0.06,
3.244,0.48,-0.18,-2.05,0.41,-0.67,0.07,
3.245,0.48,-0.18,-2.05,0.37,-0.72,0.08,
3.248,0.48,-0.18,-2.05,0.32,-0.75,0.08,
3.248,0.67,-0.42,-2.23,0.32,-0.75,0.08,
3.251,0.67,-0.42,-2.23,0.27,-0.78,0.09,
3.253,0.84,-0.65,-2.37,0.27,-0.78,0.09,
3.253,0.84,-0.65,-2.37,0.22,-0.81,0.09,
3.255,0.84,-0.65,-2.37,0.16,-0.83,0.10,
3.258,1.00,-0.88,-2.45,0.16,-0.83,0.10,
3.258,1.00,-0.88,-2.45,0.10,-0.84,0.11,
3.26,1.00,-0.88,-2.45,0.05,-0.85,0.11,
3.263,1.18,-1.08,-2.46,0.05,-0.85,0.11,
3.264,1.18,-1.08,-2.46,-0.02,-0.84,0.12,
3.266,1.18,-1.08,-2.46,-0.07,-0.83,0.13,
3.268,1.18,-1.08,-2.46,-0.14,-0.82,0.13,
3.268,1.36,-1.27,-2.41,-0.14,-0.82,0.13,
3.27,1.36,-1.27,-2.41,-0.20,-0.80,0.14,
3.272,1.49,-1.39,-2.31,-0.20,-0.80,0.14,
3.272,1.49,-1.39,-2.31,-0.26,-0.77,0.15,
3.275,1.49,-1.39,-2.31,-0.32,-0.74,0.16,
3.278,1.59,-1.45,-2.16,-0.32,-0.74,0.16,
3.278,1.59,-1.45,-2.16,-0.38,-0.70,0.18,
3.279,1.59,-1.45,-2.16,-0.44,-0.66,0.19,
3.282,1.59,-1.45,-2.16,-0.50,-0.61,0.21,
3.283,1.64,-1.47,-2.00,-0.50,-0.61,0.21,
3.284,1.64,-1.47,-2.00,-0.56,-0.55,0.23,
3.287,1.66,-1.42,-1.82,-0.56,-0.55,0.23,
3.288,1.66,-1.42,-1.82,-0.61,-0.49,0.25,
3.29,1.66,-1.42,-1.82,-0.67,-0.43,0.27,
3.292,1.66,-1.42,-1.82,-0.72,-0.36,0.29,
3.292,1.62,-1.35,-1.67,-0.72,-0.36,0.29,
3.294,1.62,-1.35,-1.67,-0.78,-0.28,0.31,
3.296,1.57,-1.21,-1.53,-0.78,-0.28,0.31,
3.296,1.57,-1.21,-1.53,-0.83,-0.20,0.34,
3.299,1.57,-1.21,-1.53,-0.88,-0.12,0.36,
3.302,1.46,-1.05,-1.37,-0.88,-0.12,0.36,
3.302,1.46,-1.05,-1.37,-0.93,-0.03,0.38,
3.305,1.46,-1.05,-1.37,-0.98,0.06,0.40,
3.308,1.37,-0.87,-1.21,-0.98,0.06,0.40,
3.308,1.37,-0.87,-1.21,-1.03,0.15,0.42,
3.308,1.37,-0.87,-1.21,-1.08,0.24,0.43,
3.311,1.25,-0.65,-1.05,-1.08,0.24,0.43,
3.311,1.25,-0.65,-1.05,-1.12,0.33,0.45,
3.313,1.25,-0.65,-1.05,-1.17,0.42,0.46,
3.315,1.15,-0.46,-0.89,-1.17,0.42,0.46,
3.316,1.15,-0.46,-0.89,-1.21,0.51,0.47,
3.319,1.15,-0.46,-0.89,-1.25,0.60,0.47,
3.32,1.15,-0.46,-0.89,-1.28,0.69,0.47,
3.321,1.11,-0.27,-0.71,-1.28,0.69,0.47,
3.325,1.11,-0.27,-0.71,-1.32,0.77,0.47,
3.326,1.04,-0.10,-0.51,-1.32,0.77,0.47,
3.326,1.04,-0.10,-0.51,-1.35,0.85,0.47,
3.328,1.04,-0.10,-0.51,-1.38,0.92,0.46,
3.33,0.95,0.06,-0.27,-1.38,0.92,0.46,
3.33,0.95,0.06,-0.27,-1.40,0.98,0.45,
3.333,0.95,0.06,-0.27,-1.42,1.05,0.44,
3.336,0.89,0.19,0.01,-1.42,1.05,0.44,
3.336,0.89,0.19,0.01,-1.43,1.10,0.43,
3.338,0.89,0.19,0.01,-1.44,1.15,0.41,
3.341,0.83,0.33,0.30,-1.44,1.15,0.41,
3.341,0.83,0.33,0.30,-1.45,1.20,0.39,
3.343,0.83,0.33,0.30,-1.45,1.24,0.38,
3.346,0.78,0.47,0.58,-1.45,1.24,0.38,
3.347,0.78,0.47,0.58,-1.44,1.27,0.35,
3.348,0.78,0.47,0.58,-1.43,1.29,0.33,
3.35,0.68,0.62,0.85,-1.43,1.29,0.33,
3.351,0.68,0.62,0.85,-1.42,1.31,0.31,
3.353,0.68,0.62,0.85,-1.40,1.33,0.28,
3.354,0.56,0.75,1.11,-1.40,1.33,0.28,
3.355,0.56,0.75,1.11,-1.37,1.34,0.26,
3.359,0.56,0.75,1.11,-1.34,1.34,0.23,
3.359,0.45,0.87,1.32,-1.34,1.34,0.23,
3.36,0.45,0.87,1.32,-1.31,1.34,0.21,
3.364,0.45,0.87,1.32,-1.27,1.33,0.19,
3.364,0.31,0.97,1.49,-1.27,1.33,0.19,
3.364,0.31,0.97,1.49,-1.23,1.32,0.16,
3.366,0.31,0.97,1.49,-1.19,1.30,0.14,
3.369,0.14,1.06,1.64,-1.19,1.30,0.14,
3.369,0.14,1.06,1.64,-1.15,1.28,0.12,
3.371,0.14,1.06,1.64,-1.10,1.26,0.11,
3.374,0.14,1.06,1.64,-1.05,1.23,0.09,
3.376,-0.03,1.11,1.74,-1.05,1.23,0.09,
3.377,-0.03,1.11,1.74,-1.00,1.19,0.08,
3.378,-0.16,1.14,1.80,-1.00,1.19,0.08,
3.379,-0.16,1.14,1.80,-0.95,1.15,0.07,
3.382,-0.16,1.14,1.80,-0.90,1.11,0.06,
3.384,-0.31,1.14,1.83,-0.90,1.11,0.06,
3.384,-0.31,1.14,1.83,-0.85,1.07,0.05,
3.387,-0.31,1.14,1.83,-0.80,1.02,0.05,
3.389,-0.31,1.14,1.83,-0.74,0.97,0.04,
3.389,-0.45,1.15,1.82,-0.74,0.97,0.04,
3.393,-0.45,1.15,1.82,-0.69,0.92,0.04,
3.394,-0.56,1.15,1.79,-0.69,0.92,0.04,
3.394,-0.56,1.15,1.79,-0.64,0.87,0.03,
3.398,-0.56,1.15,1.79,-0.58,0.82,0.03,
3.399,-0.69,1.15,1.74,-0.58,0.82,0.03,
3.399,-0.69,1.15,1.74,-0.53,0.76,0.03,
3.401,-0.69,1.15,1.74,-0.48,0.71,0.04,
3.404,-0.69,1.15,1.74,-0.43,0.65,0.04,
3.404,-0.78,1.14,1.68,-0.43,0.65,0.04,
3.405,-0.78,1.14,1.68,-0.38,0.60,0.04,
3.409,-0.78,1.14,1.68,-0.33,0.55,0.05,
3.41,-0.79,1.12,1.56,-0.33,0.55,0.05,
3.41,-0.79,1.12,1.56,-0.28,0.51,0.05,
3.413,-0.81,1.07,1.41,-0.28,0.51,0.05,
3.413,-0.81,1.07,1.41,-0.24,0.46,0.06,
3.416,-0.81,1.07,1.41,-0.20,0.42,0.07,
3.418,-0.81,1.07,1.41,-0.16,0.38,0.07,
3.418,-0.83,1.03,1.24,-0.16,0.38,0.07,
3.42,-0.83,1.03,1.24,-0.12,0.35,0.08,
3.423,-0.83,1.03,1.24,-0.09,0.31,0.09,
3.423,-0.83,1.01,1.04,-0.09,0.31,0.09,
3.425,-0.83,1.01,1.04,-0.05,0.28,0.10,
3.428,-0.81,1.00,0.85,-0.05,0.28,0.10,
3.429,-0.81,1.00,0.85,-0.02,0.24,0.12,
3.429,-0.81,1.00,0.85,0.00,0.21,0.13,
3.433,-0.81,1.00,0.85,0.03,0.18,0.14,
3.434,-0.79,0.99,0.66,0.03,0.18,0.14,
3.434,-0.79,0.99,0.66,0.05,0.16,0.15,
3.438,-0.77,1.01,0.47,0.05,0.16,0.15,
3.438,-0.77,1.01,0.47,0.07,0.13,0.16,
3.439,-0.77,1.01,0.47,0.08,0.11,0.18,
3.443,-0.75,1.03,0.27,0.08,0.11,0.18,
3.443,-0.75,1.03,0.27,0.10,0.09,0.19,
3.444,-0.75,1.03,0.27,0.11,0.08,0.20,
3.447,-0.70,1.07,0.06,0.11,0.08,0.20,
3.447,-0.70,1.07,0.06,0.11,0.06,0.21,
3.45,-0.70,1.07,0.06,0.12,0.06,0.22,
3.453,-0.64,1.11,-0.15,0.12,0.06,0.22,
3.453,-0.64,1.11,-0.15,0.12,0.05,0.23,
3.454,-0.64,1.11,-0.15,0.12,0.05,0.24,
3.458,-0.64,1.11,-0.15,0.12,0.05,0.25,
3.459,-0.57,1.15,-0.38,0.12,0.05,0.25,
3.459,-0.57,1.15,-0.38,0.12,0.05,0.26,
3.461,-0.57,1.15,-0.38,0.11,0.06,0.27,
3.462,-0.52,1.19,-0.56,0.11,0.06,0.27,
3.464,-0.52,1.19,-0.56,0.10,0.07,0.29,
3.467,-0.50,1.23,-0.74,0.10,0.07,0.29,
3.467,-0.50,1.23,-0.74,0.09,0.08,0.30,
3.468,-0.50,1.23,-0.74,0.08,0.09,0.31,
3.472,-0.51,1.30,-0.85,0.08,0.09,0.31,
3.472,-0.51,1.30,-0.85,0.07,0.10,0.32,
3.474,-0.51,1.30,-0.85,0.05,0.12,0.33,
3.476,-0.51,1.30,-0.85,0.04,0.13,0.34,
3.477,-0.53,1.40,-0.90,0.04,0.13,0.34,
3.478,-0.53,1.40,-0.90,0.02,0.15,0.35,
3.481,-0.53,1.40,-0.90,0.01,0.16,0.36,
3.481,-0.53,1.52,-0.94,0.01,0.16,0.36,
3.484,-0.53,1.52,-0.94,-0.01,0.18,0.37,
3.486,-0.49,1.62,-0.97,-0.01,0.18,0.37,
3.486,-0.49,1.62,-0.97,-0.02,0.19,0.37,
3.489,-0.49,1.62,-0.97,-0.04,0.21,0.38,
3.495,-0.44,1.71,-1.00,-0.04,0.21,0.38,
3.496,-0.44,1.71,-1.00,-0.06,0.23,0.38,
3.496,-0.44,1.71,-1.00,-0.07,0.25,0.38,
3.497,-0.38,1.77,-1.02,-0.07,0.25,0.38,
3.497,-0.38,1.77,-1.02,-0.08,0.26,0.38,
3.498,-0.38,1.77,-1.02,-0.10,0.28,0.38,
3.501,-0.33,1.83,-1.02,-0.10,0.28,0.38,
3.501,-0.33,1.83,-1.02,-0.11,0.30,0.38,
3.502,-0.33,1.83,-1.02,-0.13,0.32,0.38,
3.506,-0.27,1.92,-1.02,-0.13,0.32,0.38,
3.507,-0.27,1.92,-1.02,-0.14,0.34,0.38,
3.507,-0.27,1.92,-1.02,-0.15,0.35,0.38,
3.51,-0.22,1.93,-1.00,-0.15,0.35,0.38,
3.511,-0.22,1.93,-1.00,-0.17,0.37,0.37,
3.512,-0.22,1.93,-1.00,-0.17,0.38,0.37,
3.514,-0.22,1.93,-1.00,-0.19,0.39,0.36,
3.515,-0.17,1.94,-0.96,-0.19,0.39,0.36,
3.517,-0.17,1.94,-0.96,-0.19,0.39,0.36,
3.52,-0.13,1.99,-0.90,-0.19,0.39,0.36,
3.521,-0.13,1.99,-0.90,-0.20,0.40,0.35,
3.522,-0.13,1.99,-0.90,-0.21,0.40,0.35,
3.524,-0.09,2.04,-0.81,-0.21,0.40,0.35,
3.525,-0.09,2.04,-0.81,-0.21,0.40,0.34,
3.527,-0.09,2.04,-0.81,-0.22,0.40,0.33,
3.529,-0.09,2.04,-0.81,-0.22,0.40,0.33,
3.53,-0.06,2.05,-0.71,-0.22,0.40,0.33,
3.531,-0.06,2.05,-0.71,-0.21,0.40,0.32,
3.534,-0.03,2.08,-0.61,-0.21,0.40,0.32,
3.534,-0.03,2.08,-0.61,-0.21,0.39,0.32,
3.536,-0.03,2.08,-0.61,-0.21,0.39,0.32,
3.539,0.03,2.11,-0.50,-0.21,0.39,0.32,
3.54,0.03,2.11,-0.50,-0.20,0.38,0.31,
3.541,0.03,2.11,-0.50,-0.19,0.37,0.31,
3.544,0.03,2.11,-0.50,-0.17,0.36,0.31,
3.546,0.07,2.11,-0.37,-0.17,0.36,0.31,
3.55,0.07,2.11,-0.37,-0.16,0.35,0.30,
3.55,0.14,2.08,-0.27,-0.16,0.35,0.30,
3.55,0.14,2.08,-0.27,-0.15,0.33,0.30,
3.551,0.14,2.08,-0.27,-0.13,0.32,0.30,
3.554,0.14,2.08,-0.27,-0.11,0.30,0.29,
3.554,0.22,2.02,-0.19,-0.11,0.30,0.29,
3.557,0.22,2.02,-0.19,-0.09,0.28,0.29,
3.559,0.22,2.02,-0.19,-0.07,0.26,0.29,
3.56,0.34,1.89,-0.11,-0.07,0.26,0.29,
3.56,0.34,1.89,-0.11,-0.05,0.24,0.28,
3.563,0.52,1.73,-0.03,-0.05,0.24,0.28,
3.563,0.52,1.73,-0.03,-0.03,0.22,0.28,
3.565,0.52,1.73,-0.03,-0.01,0.20,0.27,
3.567,0.68,1.56,0.07,-0.01,0.20,0.27,
3.568,0.68,1.56,0.07,0.02,0.17,0.27,
3.571,0.68,1.56,0.07,0.04,0.15,0.27,
3.574,0.85,1.37,0.16,0.04,0.15,0.27,
3.574,0.85,1.37,0.16,0.06,0.12,0.27,
3.576,0.85,1.37,0.16,0.09,0.09,0.27,
3.578,1.05,1.12,0.21,0.09,0.09,0.27,
3.579,1.05,1.12,0.21,0.11,0.06,0.27,
3.581,1.05,1.12,0.21,0.14,0.03,0.27,
3.583,1.05,1.12,0.21,0.16,-0.00,0.27,
3.583,1.24,0.91,0.23,0.16,-0.00,0.27,
3.585,1.24,0.91,0.23,0.18,-0.04,0.27,
3.587,1.44,0.70,0.25,0.18,-0.04,0.27,
3.587,1.44,0.70,0.25,0.21,-0.07,0.27,
3.589,1.44,0.70,0.25,0.23,-0.10,0.27,
3.594,1.63,0.51,0.24,0.23,-0.10,0.27,
3.595,1.63,0.51,0.24,0.25,-0.13,0.28,
3.595,1.63,0.51,0.24,0.28,-0.16,0.28,
3.598,1.83,0.31,0.23,0.28,-0.16,0.28,
3.598,1.83,0.31,0.23,0.30,-0.18,0.29,
3.599,1.83,0.31,0.23,0.32,-0.21,0.30,
3.602,2.00,0.15,0.18,0.32,-0.21,0.30,
3.603,2.00,0.15,0.18,0.34,-0.23,0.30,
3.605,2.00,0.15,0.18,0.36,-0.25,0.31,
3.607,2.15,0.00,0.13,0.36,-0.25,0.31,
3.608,2.15,0.00,0.13,0.38,-0.27,0.32,
3.61,2.15,0.00,0.13,0.41,-0.29,0.32,
3.611,2.15,0.00,0.13,0.42,-0.31,0.33,
3.612,2.31,-0.10,0.08,0.42,-0.31,0.33,
3.614,2.31,-0.10,0.08,0.44,-0.33,0.34,
3.617,2.31,-0.10,0.08,0.46,-0.35,0.35,
3.617,2.47,-0.20,0.04,0.46,-0.35,0.35,
3.618,2.47,-0.20,0.04,0.47,-0.37,0.35,
3.622,2.47,-0.20,0.04,0.48,-0.39,0.36,
3.622,2.69,-0.35,-0.02,0.48,-0.39,0.36,
3.624,2.69,-0.35,-0.02,0.50,-0.41,0.37,
3.626,2.69,-0.35,-0.02,0.50,-0.43,0.37,
3.627,2.97,-0.57,-0.09,0.50,-0.43,0.37,
3.629,2.97,-0.57,-0.09,0.51,-0.45,0.37,
3.631,3.27,-0.81,-0.15,0.51,-0.45,0.37,
3.632,3.27,-0.81,-0.15,0.52,-0.47,0.37,
3.634,3.27,-0.81,-0.15,0.52,-0.49,0.37,
3.636,3.27,-0.81,-0.15,0.52,-0.51,0.37,
3.637,3.51,-1.02,-0.22,0.52,-0.51,0.37,
3.639,3.51,-1.02,-0.22,0.51,-0.53,0.37,
3.641,3.51,-1.02,-0.22,0.51,-0.54,0.37,
3.642,3.75,-1.15,-0.28,0.51,-0.54,0.37,
3.645,3.75,-1.15,-0.28,0.50,-0.55,0.38,
3.646,3.75,-1.15,-0.28,0.50,-0.56,0.38,
3.646,3.90,-1.25,-0.36,0.50,-0.56,0.38,
3.649,3.90,-1.25,-0.36,0.49,-0.57,0.38,
3.651,3.90,-1.25,-0.36,0.48,-0.57,0.38,
3.652,4.06,-1.26,-0.44,0.48,-0.57,0.38,
3.652,4.06,-1.26,-0.44,0.48,-0.57,0.39,
3.656,4.06,-1.26,-0.44,0.47,-0.57,0.39,
3.656,4.15,-1.26,-0.52,0.47,-0.57,0.39,
3.658,4.15,-1.26,-0.52,0.46,-0.56,0.40,
3.66,4.15,-1.26,-0.52,0.45,-0.56,0.40,
3.66,4.23,-1.20,-0.58,0.45,-0.56,0.40,
3.663,4.23,-1.20,-0.58,0.44,-0.55,0.41,
3.664,4.35,-1.13,-0.61,0.44,-0.55,0.41,
3.665,4.35,-1.13,-0.61,0.43,-0.54,0.41,
3.668,4.35,-1.13,-0.61,0.41,-0.52,0.42,
3.67,4.35,-1.13,-0.61,0.40,-0.51,0.42,
3.671,4.43,-1.07,-0.66,0.40,-0.51,0.42,
3.672,4.43,-1.07,-0.66,0.39,-0.50,0.42,
3.679,4.59,-1.01,-0.71,0.39,-0.50,0.42,
3.679,4.59,-1.01,-0.71,0.37,-0.48,0.42,
3.68,4.59,-1.01,-0.71,0.36,-0.47,0.41,
3.681,4.74,-0.98,-0.79,0.36,-0.47,0.41,
3.681,4.74,-0.98,-0.79,0.34,-0.45,0.41,
3.682,4.74,-0.98,-0.79,0.32,-0.43,0.40,
3.684,4.74,-0.98,-0.79,0.30,-0.41,0.39,
3.685,4.90,-0.96,-0.82,0.30,-0.41,0.39,
3.686,4.90,-0.96,-0.82,0.28,-0.39,0.38,
3.689,4.90,-0.96,-0.82,0.26,-0.37,0.37,
3.689,4.99,-0.92,-0.85,0.26,-0.37,0.37,
3.692,4.99,-0.92,-0.85,0.24,-0.35,0.36,
3.694,4.99,-0.92,-0.85,0.22,-0.33,0.35,
3.694,5.04,-0.84,-0.87,0.22,-0.33,0.35,
3.696,5.04,-0.84,-0.87,0.19,-0.31,0.34,
3.698,5.04,-0.84,-0.87,0.17,-0.29,0.32,
3.698,5.01,-0.65,-0.85,0.17,-0.29,0.32,
3.701,5.01,-0.65,-0.85,0.15,-0.26,0.31,
3.704,5.01,-0.65,-0.85,0.13,-0.24,0.30,
3.704,4.93,-0.42,-0.84,0.13,-0.24,0.30,
3.706,4.93,-0.42,-0.84,0.11,-0.21,0.29,
3.709,4.93,-0.42,-0.84,0.09,-0.18,0.27,
3.71,4.75,-0.12,-0.82,0.09,-0.18,0.27,
3.71,4.75,-0.12,-0.82,0.08,-0.15,0.26,
3.714,4.56,0.21,-0.77,0.08,-0.15,0.26,
3.714,4.56,0.21,-0.77,0.06,-0.12,0.25,
3.716,4.56,0.21,-0.77,0.04,-0.09,0.23,
3.718,4.37,0.59,-0.74,0.04,-0.09,0.23,
3.719,4.37,0.59,-0.74,0.03,-0.06,0.21,
3.72,4.37,0.59,-0.74,0.02,-0.02,0.19,
3.723,4.15,0.95,-0.67,0.02,-0.02,0.19,
3.723,4.15,0.95,-0.67,0.01,0.01,0.17,
3.726,4.15,0.95,-0.67,-0.00,0.04,0.15,
3.729,3.91,1.31,-0.56,-0.00,0.04,0.15,
3.729,3.91,1.31,-0.56,-0.01,0.07,0.13,
3.731,3.91,1.31,-0.56,-0.02,0.10,0.10,
3.733,3.62,1.68,-0.44,-0.02,0.10,0.10,
3.734,3.62,1.68,-0.44,-0.03,0.13,0.07,
3.735,3.62,1.68,-0.44,-0.03,0.16,0.05,
3.738,3.32,2.07,-0.32,-0.03,0.16,0.05,
3.739,3.32,2.07,-0.32,-0.03,0.19,0.01,
3.741,3.32,2.07,-0.32,-0.03,0.22,-0.02,
3.743,3.03,2.45,-0.19,-0.03,0.22,-0.02,
3.743,3.03,2.45,-0.19,-0.02,0.25,-0.06,
3.745,3.03,2.45,-0.19,-0.02,0.27,-0.10,
3.748,3.03,2.45,-0.19,-0.02,0.30,-0.14,
3.749,2.71,2.77,-0.11,-0.02,0.30,-0.14,
3.749,2.71,2.77,-0.11,-0.01,0.32,-0.18,
3.752,2.71,2.77,-0.11,-0.00,0.35,-0.22,
3.752,2.42,3.06,-0.04,-0.00,0.35,-0.22,
3.754,2.42,3.06,-0.04,0.01,0.37,-0.27,
3.757,2.42,3.06,-0.04,0.01,0.39,-0.33,
3.758,2.13,3.33,0.02,0.01,0.39,-0.33,
3.76,2.13,3.33,0.02,0.02,0.41,-0.38,
3.762,2.13,3.33,0.02,0.03,0.43,-0.43,
3.763,1.87,3.52,0.03,0.03,0.43,-0.43,
3.764,1.87,3.52,0.03,0.04,0.45,-0.49,
3.767,1.87,3.52,0.03,0.05,0.46,-0.54,
3.767,1.63,3.65,0.07,0.05,0.46,-0.54,
3.77,1.63,3.65,0.07,0.06,0.47,-0.60,
3.773,1.63,3.65,0.07,0.07,0.48,-0.66,
3.774,1.36,3.68,0.07,0.07,0.48,-0.66,
3.774,1.36,3.68,0.07,0.08,0.48,-0.71,
3.778,1.08,3.64,0.09,0.08,0.48,-0.71,
3.779,1.08,3.64,0.09,0.09,0.49,-0.77,
3.78,1.08,3.64,0.09,0.10,0.49,-0.82,
3.781,0.78,3.58,0.11,0.10,0.49,-0.82,
3.781,0.78,3.58,0.11,0.11,0.49,-0.88,
3.784,0.78,3.58,0.11,0.13,0.49,-0.93,
3.786,0.78,3.58,0.11,0.14,0.48,-0.97,
3.786,0.48,3.45,0.11,0.14,0.48,-0.97,
3.789,0.48,3.45,0.11,0.15,0.47,-1.02,
3.793,0.18,3.30,0.09,0.15,0.47,-1.02,
3.793,0.18,3.30,0.09,0.16,0.46,-1.06,
3.794,0.18,3.30,0.09,0.18,0.45,-1.10,
3.796,-0.13,3.10,0.10,0.18,0.45,-1.10,
3.796,-0.13,3.10,0.10,0.19,0.44,-1.13,
3.798,-0.13,3.10,0.10,0.21,0.42,-1.17,
3.801,-0.41,2.88,0.10,0.21,0.42,-1.17,
3.801,-0.41,2.88,0.10,0.22,0.40,-1.20,
3.803,-0.41,2.88,0.10,0.24,0.38,-1.22,
3.805,-0.41,2.88,0.10,0.25,0.35,-1.25,
3.805,-0.66,2.63,0.09,0.25,0.35,-1.25,
3.808,-0.66,2.63,0.09,0.26,0.32,-1.27,
3.81,-0.88,2.34,0.09,0.26,0.32,-1.27,
3.81,-0.88,2.34,0.09,0.28,0.29,-1.29,
3.813,-0.88,2.34,0.09,0.30,0.26,-1.30,
3.816,-1.02,1.99,0.09,0.30,0.26,-1.30,
3.816,-1.02,1.99,0.09,0.31,0.22,-1.31,
3.817,-1.02,1.99,0.09,0.33,0.19,-1.32,
3.819,-1.13,1.63,0.09,0.33,0.19,-1.32,
3.82,-1.13,1.63,0.09,0.34,0.15,-1.33,
3.823,-1.13,1.63,0.09,0.36,0.11,-1.33,
3.825,-1.13,1.63,0.09,0.37,0.06,-1.33,
3.825,-1.20,1.22,0.09,0.37,0.06,-1.33,
3.828,-1.20,1.22,0.09,0.39,0.01,-1.33,
3.83,-1.20,1.22,0.09,0.40,-0.04,-1.32,
3.83,-1.23,0.82,0.12,0.40,-0.04,-1.32,
3.832,-1.23,0.82,0.12,0.42,-0.09,-1.30,
3.834,-1.26,0.41,0.19,0.42,-0.09,-1.30,
3.835,-1.26,0.41,0.19,0.43,-0.15,-1.29,
3.837,-1.26,0.41,0.19,0.45,-0.21,-1.27,
3.84,-1.26,0.41,0.19,0.47,-0.27,-1.24,
3.84,-1.27,-0.03,0.29,0.47,-0.27,-1.24,
3.842,-1.27,-0.03,0.29,0.49,-0.34,-1.22,
3.845,-1.26,-0.44,0.42,0.49,-0.34,-1.22,
3.845,-1.26,-0.44,0.42,0.51,-0.40,-1.19,
3.847,-1.26,-0.44,0.42,0.53,-0.47,-1.16,
3.85,-1.23,-0.83,0.55,0.53,-0.47,-1.16,
3.85,-1.23,-0.83,0.55,0.55,-0.54,-1.12,
3.851,-1.23,-0.83,0.55,0.58,-0.61,-1.08,
3.854,-1.23,-0.83,0.55,0.60,-0.69,-1.04,
3.854,-1.21,-1.14,0.67,0.60,-0.69,-1.04,
3.857,-1.21,-1.14,0.67,0.63,-0.76,-1.00,
3.859,-1.21,-1.14,0.67,0.65,-0.83,-0.95,
3.859,-1.20,-1.37,0.81,0.65,-0.83,-0.95,
3.861,-1.20,-1.37,0.81,0.69,-0.91,-0.90,
3.863,-1.16,-1.56,0.93,0.69,-0.91,-0.90,
3.864,-1.16,-1.56,0.93,0.71,-0.98,-0.85,
3.866,-1.16,-1.56,0.93,0.74,-1.05,-0.79,
3.868,-1.09,-1.75,1.02,0.74,-1.05,-0.79,
3.869,-1.09,-1.75,1.02,0.77,-1.12,-0.74,
3.871,-1.09,-1.75,1.02,0.81,-1.19,-0.68,
3.874,-1.09,-1.75,1.02,0.84,-1.26,-0.63,
3.874,-0.98,-1.92,1.11,0.84,-1.26,-0.63,
3.876,-0.98,-1.92,1.11,0.87,-1.34,-0.57,
3.878,-0.88,-2.06,1.18,0.87,-1.34,-0.57,
3.878,-0.88,-2.06,1.18,0.90,-1.41,-0.52,
3.881,-0.88,-2.06,1.18,0.93,-1.48,-0.46,
3.883,-0.88,-2.06,1.18,0.96,-1.54,-0.41,
3.883,-0.75,-2.16,1.24,0.96,-1.54,-0.41,
3.885,-0.75,-2.16,1.24,0.98,-1.61,-0.36,
3.887,-0.58,-2.26,1.25,0.98,-1.61,-0.36,
3.888,-0.58,-2.26,1.25,1.00,-1.67,-0.31,
3.891,-0.58,-2.26,1.25,1.02,-1.73,-0.27,
3.893,-0.39,-2.29,1.28,1.02,-1.73,-0.27,
3.893,-0.39,-2.29,1.28,1.04,-1.78,-0.22,
3.895,-0.39,-2.29,1.28,1.06,-1.83,-0.18,
3.898,-0.23,-2.31,1.28,1.06,-1.83,-0.18,
3.898,-0.23,-2.31,1.28,1.07,-1.88,-0.14,
3.9,-0.23,-2.31,1.28,1.09,-1.91,-0.11,
3.902,-0.23,-2.31,1.28,1.09,-1.94,-0.07,
3.902,-0.07,-2.22,1.26,1.09,-1.94,-0.07,
3.904,-0.07,-2.22,1.26,1.10,-1.96,-0.04,
3.908,0.02,-2.08,1.17,1.10,-1.96,-0.04,
3.908,0.02,-2.08,1.17,1.11,-1.98,-0.01,
3.909,0.02,-2.08,1.17,1.11,-1.99,0.01,
3.912,0.10,-1.90,1.05,1.11,-1.99,0.01,
3.913,0.10,-1.90,1.05,1.11,-1.99,0.04,
3.914,0.10,-1.90,1.05,1.11,-1.99,0.06,
3.916,0.10,-1.90,1.05,1.11,-1.98,0.08,
3.917,0.18,-1.71,0.95,1.11,-1.98,0.08,
3.919,0.18,-1.71,0.95,1.10,-1.97,0.09,
3.921,0.18,-1.71,0.95,1.09,-1.95,0.11,
3.922,0.25,-1.48,0.84,1.09,-1.95,0.11,
3.924,0.25,-1.48,0.84,1.08,-1.93,0.12,
3.926,0.32,-1.24,0.75,1.08,-1.93,0.12,
3.926,0.32,-1.24,0.75,1.06,-1.90,0.12,
3.929,0.32,-1.24,0.75,1.04,-1.87,0.13,
3.932,0.43,-0.98,0.66,1.04,-1.87,0.13,
3.932,0.43,-0.98,0.66,1.02,-1.84,0.13,
3.934,0.43,-0.98,0.66,1.00,-1.80,0.13,
3.937,0.53,-0.76,0.54,1.00,-1.80,0.13,
3.937,0.53,-0.76,0.54,0.97,-1.75,0.13,
3.939,0.53,-0.76,0.54,0.94,-1.70,0.12,
3.942,0.53,-0.76,0.54,0.91,-1.65,0.11,
3.943,0.65,-0.53,0.41,0.91,-1.65,0.11,
3.944,0.65,-0.53,0.41,0.88,-1.59,0.10,
3.947,0.65,-0.53,0.41,0.84,-1.52,0.08,
3.947,0.75,-0.31,0.27,0.84,-1.52,0.08,
3.95,0.75,-0.31,0.27,0.81,-1.45,0.07,
3.951,0.75,-0.31,0.27,0.77,-1.38,0.05,
3.951,0.83,-0.10,0.16,0.77,-1.38,0.05,
3.953,0.83,-0.10,0.16,0.73,-1.31,0.02,
3.956,0.83,-0.10,0.16,0.70,-1.24,-0.00,
3.957,0.90,0.06,0.09,0.70,-1.24,-0.00,
3.958,0.90,0.06,0.09,0.66,-1.16,-0.03,
3.961,0.96,0.21,0.04,0.66,-1.16,-0.03,
3.961,0.96,0.21,0.04,0.62,-1.09,-0.06,
3.962,0.96,0.21,0.04,0.58,-1.01,-0.09,
3.965,0.96,0.21,0.04,0.55,-0.94,-0.12,
3.965,1.00,0.35,0.04,0.55,-0.94,-0.12,
3.967,1.00,0.35,0.04,0.51,-0.87,-0.16,
3.97,1.06,0.48,0.10,0.51,-0.87,-0.16,
3.971,1.06,0.48,0.10,0.48,-0.80,-0.19,
3.972,1.06,0.48,0.10,0.45,-0.74,-0.23,
3.975,1.06,0.48,0.10,0.42,-0.68,-0.27,
3.975,1.06,0.58,0.20,0.42,-0.68,-0.27,
3.978,1.06,0.58,0.20,0.39,-0.62,-0.31,
3.98,1.00,0.66,0.30,0.39,-0.62,-0.31,
3.98,1.00,0.66,0.30,0.37,-0.56,-0.34,
3.983,1.00,0.66,0.30,0.34,-0.51,-0.38,
3.985,1.00,0.66,0.30,0.32,-0.46,-0.42,
3.985,0.93,0.72,0.40,0.32,-0.46,-0.42,
3.987,0.93,0.72,0.40,0.30,-0.41,-0.46,
3.991,0.85,0.80,0.52,0.30,-0.41,-0.46,
3.991,0.85,0.80,0.52,0.29,-0.37,-0.50,
3.992,0.85,0.80,0.52,0.27,-0.33,-0.54,
3.994,0.74,0.81,0.62,0.27,-0.33,-0.54,
3.994,0.74,0.81,0.62,0.26,-0.30,-0.58,
3.996,0.74,0.81,0.62,0.25,-0.27,-0.61,
3.999,0.74,0.81,0.62,0.24,-0.24,-0.65,
3.999,0.60,0.79,0.70,0.24,-0.24,-0.65,
4.001,0.60,0.79,0.70,0.23,-0.22,-0.68,
4.005,0.60,0.79,0.70,0.23,-0.20,-0.71,
4.005,0.42,0.78,0.78,0.23,-0.20,-0.71,
4.007,0.42,0.78,0.78,0.22,-0.18,-0.75,
4.01,0.23,0.74,0.84,0.22,-0.18,-0.75,
4.01,0.23,0.74,0.84,0.21,-0.17,-0.78,
4.012,0.23,0.74,0.84,0.21,-0.16,-0.81,
4.014,0.02,0.64,0.90,0.21,-0.16,-0.81,
4.015,0.02,0.64,0.90,0.20,-0.16,-0.83,
4.016,0.02,0.64,0.90,0.20,-0.15,-0.86,
4.018,-0.18,0.59,0.98,0.20,-0.15,-0.86,
4.019,-0.18,0.59,0.98,0.20,-0.16,-0.89,
4.023,-0.18,0.59,0.98,0.20,-0.16,-0.91,
4.023,-0.42,0.52,1.06,0.20,-0.16,-0.91,
4.024,-0.42,0.52,1.06,0.20,-0.17,-0.94,
4.025,-0.42,0.52,1.06,0.20,-0.18,-0.96,
4.028,-0.65,0.43,1.12,0.20,-0.18,-0.96,
4.029,-0.65,0.43,1.12,0.20,-0.19,-0.98,
4.03,-0.65,0.43,1.12,0.20,-0.20,-1.00,
4.033,-0.84,0.33,1.16,0.20,-0.20,-1.00,
4.033,-0.84,0.33,1.16,0.20,-0.21,-1.02,
4.035,-0.84,0.33,1.16,0.20,-0.22,-1.04,
4.038,-1.06,0.22,1.17,0.20,-0.22,-1.04,
4.038,-1.06,0.22,1.17,0.21,-0.23,-1.05,
4.041,-1.06,0.22,1.17,0.21,-0.23,-1.07,
4.044,-1.25,0.12,1.19,0.21,-0.23,-1.07,
4.044,-1.25,0.12,1.19,0.22,-0.24,-1.08,
4.046,-1.25,0.12,1.19,0.22,-0.25,-1.09,
4.047,-1.25,0.12,1.19,0.23,-0.25,-1.10,
4.047,-1.47,0.03,1.20,0.23,-0.25,-1.10,
4.05,-1.47,0.03,1.20,0.23,-0.26,-1.11,
4.052,-1.68,-0.09,1.20,0.23,-0.26,-1.11,
4.052,-1.68,-0.09,1.20,0.24,-0.26,-1.11,
4.055,-1.68,-0.09,1.20,0.24,-0.26,-1.12,
4.058,-1.68,-0.09,1.20,0.25,-0.26,-1.12,
4.058,-1.88,-0.18,1.19,0.25,-0.26,-1.12,
4.059,-1.88,-0.18,1.19,0.25,-0.27,-1.12,
4.063,-2.05,-0.27,1.21,0.25,-0.27,-1.12,
4.063,-2.05,-0.27,1.21,0.26,-0.27,-1.12,
4.064,-2.05,-0.27,1.21,0.26,-0.27,-1.12,
4.068,-2.26,-0.34,1.20,0.26,-0.27,-1.12,
4.068,-2.26,-0.34,1.20,0.27,-0.27,-1.11,
4.07,-2.26,-0.34,1.20,0.27,-0.27,-1.11,
4.076,-2.26,-0.34,1.20,0.27,-0.27,-1.10,
4.077,-2.44,-0.43,1.19,0.27,-0.27,-1.10,
4.077,-2.44,-0.43,1.19,0.28,-0.27,-1.09,
4.078,-2.63,-0.49,1.16,0.28,-0.27,-1.09,
4.078,-2.63,-0.49,1.16,0.28,-0.27,-1.07,
4.08,-2.63,-0.49,1.16,0.28,-0.27,-1.06,
4.082,-2.77,-0.52,1.12,0.28,-0.27,-1.06,
4.083,-2.77,-0.52,1.12,0.28,-0.26,-1.04,
4.084,-2.77,-0.52,1.12,0.28,-0.26,-1.03,
4.086,-2.77,-0.52,1.12,0.28,-0.25,-1.01,
4.086,-2.93,-0.53,1.06,0.28,-0.25,-1.01,
4.089,-2.93,-0.53,1.06,0.27,-0.24,-0.99,
4.092,-2.99,-0.58,0.99,0.27,-0.24,-0.99,
4.093,-2.99,-0.58,0.99,0.27,-0.23,-0.97,
4.093,-2.99,-0.58,0.99,0.27,-0.22,-0.96,
4.097,-3.07,-0.63,0.90,0.27,-0.22,-0.96,
4.097,-3.07,-0.63,0.90,0.26,-0.21,-0.93,
4.098,-3.07,-0.63,0.90,0.25,-0.20,-0.92,
4.101,-3.08,-0.70,0.79,0.25,-0.20,-0.92,
4.101,-3.08,-0.70,0.79,0.25,-0.18,-0.90,
4.104,-3.08,-0.70,0.79,0.24,-0.17,-0.88,
4.106,-3.10,-0.73,0.70,0.24,-0.17,-0.88,
4.107,-3.10,-0.73,0.70,0.23,-0.15,-0.86,
4.109,-3.10,-0.73,0.70,0.22,-0.14,-0.84,
4.111,-3.13,-0.76,0.62,0.22,-0.14,-0.84,
4.112,-3.13,-0.76,0.62,0.21,-0.12,-0.82,
4.113,-3.13,-0.76,0.62,0.20,-0.10,-0.80,
4.115,-3.17,-0.77,0.56,0.20,-0.10,-0.80,
4.115,-3.17,-0.77,0.56,0.18,-0.09,-0.79,
4.117,-3.17,-0.77,0.56,0.17,-0.07,-0.77,
4.121,-3.22,-0.74,0.52,0.17,-0.07,-0.77,
4.121,-3.22,-0.74,0.52,0.16,-0.06,-0.76,
4.124,-3.22,-0.74,0.52,0.14,-0.04,-0.74,
4.126,-3.23,-0.75,0.46,0.14,-0.04,-0.74,
4.126,-3.23,-0.75,0.46,0.13,-0.03,-0.73,
4.127,-3.23,-0.75,0.46,0.11,-0.02,-0.72,
4.131,-3.24,-0.77,0.41,0.11,-0.02,-0.72,
4.131,-3.24,-0.77,0.41,0.10,-0.01,-0.72,
4.133,-3.24,-0.77,0.41,0.08,0.01,-0.71,
4.135,-3.24,-0.77,0.41,0.06,0.01,-0.70,
4.135,-3.20,-0.82,0.35,0.06,0.01,-0.70,
4.137,-3.20,-0.82,0.35,0.04,0.02,-0.70,
4.142,-3.14,-0.91,0.28,0.04,0.02,-0.70,
4.142,-3.14,-0.91,0.28,0.02,0.03,-0.69,
4.143,-3.14,-0.91,0.28,-0.00,0.04,-0.69,
4.145,-3.10,-1.03,0.21,-0.00,0.04,-0.69,
4.145,-3.10,-1.03,0.21,-0.02,0.05,-0.68,
4.147,-3.10,-1.03,0.21,-0.05,0.06,-0.67,
4.15,-3.04,-1.12,0.19,-0.05,0.06,-0.67,
4.15,-3.04,-1.12,0.19,-0.07,0.06,-0.67,
4.152,-3.04,-1.12,0.19,-0.09,0.07,-0.66,
4.154,-3.01,-1.22,0.18,-0.09,0.07,-0.66,
4.155,-3.01,-1.22,0.18,-0.11,0.07,-0.65,
4.157,-3.01,-1.22,0.18,-0.14,0.08,-0.65,
4.159,-3.01,-1.22,0.18,-0.16,0.08,-0.64,
4.16,-2.97,-1.32,0.19,-0.16,0.08,-0.64,
4.162,-2.97,-1.32,0.19,-0.18,0.09,-0.63,
4.164,-2.90,-1.47,0.16,-0.18,0.09,-0.63,
4.164,-2.90,-1.47,0.16,-0.20,0.09,-0.62,
4.166,-2.90,-1.47,0.16,-0.22,0.10,-0.61,
4.169,-2.90,-1.47,0.16,-0.24,0.10,-0.60,
4.169,-2.81,-1.65,0.16,-0.24,0.10,-0.60,
4.172,-2.81,-1.65,0.16,-0.26,0.10,-0.59,
4.175,-2.72,-1.86,0.17,-0.26,0.10,-0.59,
4.176,-2.72,-1.86,0.17,-0.29,0.10,-0.58,
4.177,-2.72,-1.86,0.17,-0.31,0.10,-0.56,
4.179,-2.59,-2.12,0.19,-0.31,0.10,-0.56,
4.179,-2.59,-2.12,0.19,-0.33,0.10,-0.55,
4.182,-2.59,-2.12,0.19,-0.35,0.10,-0.54,
4.184,-2.45,-2.39,0.20,-0.35,0.10,-0.54,
4.184,-2.45,-2.39,0.20,-0.37,0.10,-0.52,
4.185,-2.45,-2.39,0.20,-0.39,0.10,-0.50,
4.189,-2.45,-2.39,0.20,-0.41,0.10,-0.49,
4.189,-2.29,-2.63,0.22,-0.41,0.10,-0.49,
4.191,-2.29,-2.63,0.22,-0.43,0.10,-0.47,
4.195,-2.29,-2.63,0.22,-0.45,0.10,-0.45,
4.195,-2.12,-2.92,0.23,-0.45,0.10,-0.45,
4.196,-2.12,-2.92,0.23,-0.47,0.10,-0.43,
4.198,-1.95,-3.18,0.26,-0.47,0.10,-0.43,
4.199,-1.95,-3.18,0.26,-0.49,0.10,-0.42,
4.2,-1.95,-3.18,0.26,-0.51,0.11,-0.39,
4.203,-1.79,-3.40,0.27,-0.51,0.11,-0.39,
4.203,-1.79,-3.40,0.27,-0.53,0.11,-0.37,
4.206,-1.79,-3.40,0.27,-0.55,0.11,-0.35,
4.208,-1.70,-3.62,0.30,-0.55,0.11,-0.35,
4.208,-1.70,-3.62,0.30,-0.58,0.12,-0.33,
4.21,-1.70,-3.62,0.30,-0.60,0.12,-0.30,
4.213,-1.62,-3.80,0.32,-0.60,0.12,-0.30,
4.213,-1.62,-3.80,0.32,-0.62,0.13,-0.28,
4.215,-1.62,-3.80,0.32,-0.64,0.14,-0.25,
4.218,-1.62,-3.80,0.32,-0.66,0.15,-0.23,
4.218,-1.55,-3.90,0.38,-0.66,0.15,-0.23,
4.221,-1.55,-3.90,0.38,-0.68,0.16,-0.20,
4.223,-1.55,-3.90,0.38,-0.70,0.18,-0.17,
4.223,-1.49,-3.99,0.41,-0.70,0.18,-0.17,
4.225,-1.49,-3.99,0.41,-0.72,0.19,-0.15,
4.227,-1.42,-4.05,0.45,-0.72,0.19,-0.15,
4.227,-1.42,-4.05,0.45,-0.74,0.21,-0.12,
4.229,-1.42,-4.05,0.45,-0.76,0.22,-0.10,
4.232,-1.29,-4.12,0.47,-0.76,0.22,-0.10,
4.232,-1.29,-4.12,0.47,-0.78,0.24,-0.07,
4.234,-1.29,-4.12,0.47,-0.80,0.26,-0.05,
4.237,-1.15,-4.22,0.51,-0.80,0.26,-0.05,
4.237,-1.15,-4.22,0.51,-0.82,0.28,-0.02,
4.24,-1.15,-4.22,0.51,-0.84,0.31,-0.00,
4.241,-0.96,-4.34,0.51,-0.84,0.31,-0.00,
4.242,-0.96,-4.34,0.51,-0.86,0.33,0.02,
4.244,-0.96,-4.34,0.51,-0.88,0.35,0.04,
4.246,-0.75,-4.54,0.50,-0.88,0.35,0.04,
4.247,-0.75,-4.54,0.50,-0.90,0.37,0.07,
4.249,-0.75,-4.54,0.50,-0.92,0.38,0.09,
4.251,-0.54,-4.72,0.48,-0.92,0.38,0.09,
4.251,-0.54,-4.72,0.48,-0.95,0.40,0.11,
4.253,-0.54,-4.72,0.48,-0.97,0.42,0.13,
4.257,-0.54,-4.72,0.48,-1.00,0.44,0.16,
4.257,-0.35,-4.94,0.45,-1.00,0.44,0.16,
4.258,-0.35,-4.94,0.45,-1.03,0.46,0.18,
4.261,-0.18,-5.10,0.42,-1.03,0.46,0.18,
4.262,-0.18,-5.10,0.42,-1.05,0.47,0.21,
4.263,-0.18,-5.10,0.42,-1.09,0.49,0.23,
4.267,-0.18,-5.10,0.42,-1.11,0.51,0.26,
4.267,-0.01,-5.29,0.39,-1.11,0.51,0.26,
4.268,-0.01,-5.29,0.39,-1.14,0.53,0.29,
4.27,0.14,-5.47,0.36,-1.14,0.53,0.29,
4.271,0.14,-5.47,0.36,-1.17,0.54,0.32,
4.276,0.14,-5.47,0.36,-1.20,0.56,0.35,
4.277,0.14,-5.47,0.36,-1.23,0.58,0.38,
4.277,0.30,-5.57,0.34,-1.23,0.58,0.38,
4.279,0.30,-5.57,0.34,-1.25,0.60,0.41,
4.28,0.30,-5.57,0.34,-1.28,0.61,0.44,
4.281,0.47,-5.70,0.34,-1.28,0.61,0.44,
4.284,0.47,-5.70,0.34,-1.31,0.63,0.48,
4.285,0.56,-5.73,0.40,-1.31,0.63,0.48,
4.286,0.56,-5.73,0.40,-1.32,0.64,0.51,
4.287,0.56,-5.73,0.40,-1.34,0.66,0.55,
4.29,0.56,-5.73,0.40,-1.36,0.68,0.59,
4.29,0.63,-5.73,0.46,-1.36,0.68,0.59,
4.293,0.63,-5.73,0.46,-1.37,0.69,0.63,
4.295,0.67,-5.66,0.57,-1.37,0.69,0.63,
4.296,0.67,-5.66,0.57,-1.38,0.71,0.67,
4.298,0.67,-5.66,0.57,-1.39,0.72,0.72,
4.299,0.66,-5.53,0.68,-1.39,0.72,0.72,
4.3,0.66,-5.53,0.68,-1.39,0.74,0.76,
4.302,0.66,-5.53,0.68,-1.39,0.75,0.81,
4.305,0.64,-5.27,0.78,-1.39,0.75,0.81,
4.305,0.64,-5.27,0.78,-1.38,0.77,0.86,
4.308,0.64,-5.27,0.78,-1.36,0.79,0.91,
4.311,0.58,-4.98,0.85,-1.36,0.79,0.91,
4.311,0.58,-4.98,0.85,-1.35,0.80,0.96,
4.312,0.58,-4.98,0.85,-1.32,0.82,1.02,
4.314,0.58,-4.98,0.85,-1.30,0.85,1.08,
4.315,0.38,-4.52,0.86,-1.30,0.85,1.08,
4.316,0.38,-4.52,0.86,-1.28,0.87,1.15,
4.319,0.38,-4.52,0.86,-1.25,0.90,1.21,
4.319,0.04,-3.92,0.77,-1.25,0.90,1.21,
4.321,0.04,-3.92,0.77,-1.22,0.93,1.29,
4.324,0.04,-3.92,0.77,-1.20,0.97,1.35,
4.325,-0.36,-3.18,0.57,-1.20,0.97,1.35,
4.327,-0.36,-3.18,0.57,-1.18,1.01,1.42,
4.329,-0.71,-2.44,0.25,-1.18,1.01,1.42,
4.329,-0.71,-2.44,0.25,-1.16,1.06,1.49,
4.331,-0.71,-2.44,0.25,-1.15,1.12,1.54,
4.334,-0.95,-1.83,-0.15,-1.15,1.12,1.54,
4.335,-0.95,-1.83,-0.15,-1.13,1.17,1.59,
4.336,-0.95,-1.83,-0.15,-1.13,1.22,1.64,
4.339,-0.95,-1.83,-0.15,-1.13,1.27,1.68,
4.339,-1.02,-1.23,-0.42,-1.13,1.27,1.68,
4.341,-1.02,-1.23,-0.42,-1.13,1.32,1.71,
4.344,-1.11,-0.50,-0.66,-1.13,1.32,1.71,
4.344,-1.11,-0.50,-0.66,-1.13,1.37,1.74,
4.346,-1.11,-0.50,-0.66,-1.14,1.43,1.75,
4.349,-1.07,0.11,-1.01,-1.14,1.43,1.75,
4.349,-1.07,0.11,-1.01,-1.15,1.48,1.76,
4.35,-1.07,0.11,-1.01,-1.17,1.54,1.75,
4.353,-0.97,0.66,-1.25,-1.17,1.54,1.75,
4.353,-0.97,0.66,-1.25,-1.18,1.58,1.73,
4.355,-0.97,0.66,-1.25,-1.19,1.62,1.71,
4.357,-0.97,0.66,-1.25,-1.21,1.66,1.67,
4.358,-0.85,1.10,-1.28,-1.21,1.66,1.67,
4.36,-0.85,1.10,-1.28,-1.22,1.70,1.62,
4.363,-0.77,1.54,-1.29,-1.22,1.70,1.62,
4.364,-0.77,1.54,-1.29,-1.24,1.74,1.57,
4.365,-0.77,1.54,-1.29,-1.25,1.77,1.51,
4.367,-0.75,1.98,-1.31,-1.25,1.77,1.51,
4.367,-0.75,1.98,-1.31,-1.26,1.79,1.44,
4.37,-0.75,1.98,-1.31,-1.27,1.82,1.37,
4.378,-0.75,1.98,-1.31,-1.28,1.83,1.31,
4.378,-0.77,2.41,-1.28,-1.28,1.83,1.31,
4.379,-0.77,2.41,-1.28,-1.29,1.85,1.24,
4.379,-0.83,2.77,-1.22,-1.29,1.85,1.24,
4.379,-0.83,2.77,-1.22,-1.30,1.85,1.17,
4.385,-0.83,2.77,-1.22,-1.30,1.86,1.10,
4.385,-0.94,3.01,-1.12,-1.30,1.86,1.10,
4.386,-0.94,3.01,-1.12,-1.30,1.85,1.04,
4.386,-0.94,3.01,-1.12,-1.30,1.84,0.98,
4.387,-0.94,3.01,-1.12,-1.29,1.83,0.92,
4.387,-1.05,3.16,-0.99,-1.29,1.83,0.92,
4.389,-1.05,3.16,-0.99,-1.28,1.81,0.86,
4.392,-1.05,3.16,-0.99,-1.27,1.79,0.80,
4.392,-1.22,3.22,-0.83,-1.27,1.79,0.80,
4.394,-1.22,3.22,-0.83,-1.25,1.76,0.76,
4.397,-1.37,3.22,-0.66,-1.25,1.76,0.76,
4.397,-1.37,3.22,-0.66,-1.23,1.73,0.71,
4.398,-1.37,3.22,-0.66,-1.20,1.69,0.66,
4.402,-1.51,3.19,-0.50,-1.20,1.69,0.66,
4.402,-1.51,3.19,-0.50,-1.17,1.65,0.63,
4.404,-1.51,3.19,-0.50,-1.14,1.60,0.59,
4.407,-1.51,3.19,-0.50,-1.10,1.55,0.56,
4.407,-1.61,3.07,-0.37,-1.10,1.55,0.56,
4.408,-1.61,3.07,-0.37,-1.06,1.49,0.53,
4.411,-1.63,2.88,-0.20,-1.06,1.49,0.53,
4.411,-1.63,2.88,-0.20,-1.01,1.42,0.50,
4.413,-1.63,2.88,-0.20,-0.97,1.36,0.47,
4.415,-1.58,2.65,-0.10,-0.97,1.36,0.47,
4.416,-1.58,2.65,-0.10,-0.92,1.28,0.45,
4.418,-1.58,2.65,-0.10,-0.87,1.20,0.43,
4.421,-1.50,2.38,-0.02,-0.87,1.20,0.43,
4.421,-1.50,2.38,-0.02,-0.82,1.12,0.41,
4.423,-1.50,2.38,-0.02,-0.77,1.04,0.39,
4.426,-1.50,2.38,-0.02,-0.72,0.95,0.38,
4.427,-1.40,2.06,0.04,-0.72,0.95,0.38,
4.428,-1.40,2.06,0.04,-0.66,0.86,0.37,
4.431,-1.27,1.76,0.08,-0.66,0.86,0.37,
4.431,-1.27,1.76,0.08,-0.61,0.76,0.36,
4.433,-1.27,1.76,0.08,-0.56,0.66,0.34,
4.435,-1.27,1.76,0.08,-0.51,0.56,0.34,
4.436,-1.12,1.42,0.10,-0.51,0.56,0.34,
4.438,-1.12,1.42,0.10,-0.47,0.46,0.33,
4.441,-1.12,1.42,0.10,-0.42,0.35,0.32,
4.442,-0.92,1.08,0.12,-0.42,0.35,0.32,
4.443,-0.92,1.08,0.12,-0.37,0.25,0.31,
4.446,-0.92,1.08,0.12,-0.33,0.14,0.30,
4.446,-0.68,0.70,0.11,-0.33,0.14,0.30,
4.448,-0.68,0.70,0.11,-0.29,0.03,0.29,
4.45,-0.40,0.37,0.13,-0.29,0.03,0.29,
4.451,-0.40,0.37,0.13,-0.25,-0.07,0.29,
4.453,-0.40,0.37,0.13,-0.21,-0.18,0.28,
4.456,-0.40,0.37,0.13,-0.18,-0.29,0.27,
4.456,-0.16,0.00,0.12,-0.18,-0.29,0.27,
4.458,-0.16,0.00,0.12,-0.14,-0.39,0.27,
4.459,0.04,-0.28,0.07,-0.14,-0.39,0.27,
4.459,0.04,-0.28,0.07,-0.11,-0.50,0.27,
4.462,0.04,-0.28,0.07,-0.09,-0.60,0.27,
4.464,0.23,-0.56,0.06,-0.09,-0.60,0.27,
4.464,0.23,-0.56,0.06,-0.06,-0.69,0.28,
4.467,0.23,-0.56,0.06,-0.05,-0.79,0.28,
4.469,0.38,-0.80,0.01,-0.05,-0.79,0.28,
4.47,0.38,-0.80,0.01,-0.03,-0.87,0.29,
4.474,0.38,-0.80,0.01,-0.02,-0.95,0.30,
4.474,0.57,-1.00,-0.07,-0.02,-0.95,0.30,
4.475,0.57,-1.00,-0.07,-0.02,-1.03,0.31,
4.477,0.57,-1.00,-0.07,-0.02,-1.09,0.32,
4.479,0.80,-1.23,-0.19,-0.02,-1.09,0.32,
4.479,0.80,-1.23,-0.19,-0.02,-1.15,0.33,
4.482,0.80,-1.23,-0.19,-0.03,-1.19,0.34,
4.484,0.80,-1.23,-0.19,-0.05,-1.24,0.35,
4.484,1.06,-1.46,-0.31,-0.05,-1.24,0.35,
4.487,1.06,-1.46,-0.31,-0.07,-1.27,0.36,
4.492,1.34,-1.71,-0.33,-0.07,-1.27,0.36,
4.493,1.34,-1.71,-0.33,-0.09,-1.30,0.38,
4.493,1.34,-1.71,-0.33,-0.11,-1.33,0.39,
4.494,1.57,-1.92,-0.30,-0.11,-1.33,0.39,
4.494,1.57,-1.92,-0.30,-0.13,-1.35,0.40,
4.496,1.57,-1.92,-0.30,-0.15,-1.36,0.41,
4.499,1.71,-2.04,-0.23,-0.15,-1.36,0.41,
4.499,1.71,-2.04,-0.23,-0.17,-1.36,0.43,
4.501,1.71,-2.04,-0.23,-0.19,-1.36,0.45,
4.504,1.80,-2.10,-0.12,-0.19,-1.36,0.45,
4.504,1.80,-2.10,-0.12,-0.22,-1.35,0.47,
4.506,1.80,-2.10,-0.12,-0.24,-1.34,0.49,
4.508,1.80,-2.10,-0.12,-0.27,-1.31,0.51,
4.508,1.78,-2.02,-0.02,-0.27,-1.31,0.51,
4.511,1.78,-2.02,-0.02,-0.29,-1.28,0.53,
4.513,1.71,-1.88,0.01,-0.29,-1.28,0.53,
4.516,1.71,-1.88,0.01,-0.32,-1.25,0.55,
4.516,1.71,-1.88,0.01,-0.35,-1.20,0.58,
4.518,1.62,-1.72,0.05,-0.35,-1.20,0.58,
4.518,1.62,-1.72,0.05,-0.38,-1.15,0.60,
4.52,1.62,-1.72,0.05,-0.41,-1.09,0.62,
4.523,1.62,-1.72,0.05,-0.44,-1.02,0.64,
4.523,1.52,-1.49,0.13,-0.44,-1.02,0.64,
4.525,1.52,-1.49,0.13,-0.47,-0.95,0.66,
4.527,1.52,-1.49,0.13,-0.49,-0.88,0.67,
4.527,1.49,-1.26,0.23,-0.49,-0.88,0.67,
4.53,1.49,-1.26,0.23,-0.52,-0.80,0.69,
4.532,1.49,-1.26,0.23,-0.55,-0.72,0.70,
4.532,1.50,-1.07,0.33,-0.55,-0.72,0.70,
4.535,1.50,-1.07,0.33,-0.57,-0.64,0.71,
4.538,1.52,-0.89,0.46,-0.57,-0.64,0.71,
4.538,1.52,-0.89,0.46,-0.60,-0.56,0.71,
4.54,1.52,-0.89,0.46,-0.62,-0.47,0.72,
4.542,1.52,-0.66,0.61,-0.62,-0.47,0.72,
4.543,1.52,-0.66,0.61,-0.64,-0.39,0.72,
4.545,1.52,-0.66,0.61,-0.65,-0.30,0.72,
4.547,1.52,-0.66,0.61,-0.67,-0.22,0.72,
4.547,1.45,-0.40,0.78,-0.67,-0.22,0.72,
4.55,1.45,-0.40,0.78,-0.69,-0.14,0.71,
4.552,1.38,-0.09,0.94,-0.69,-0.14,0.71,
4.553,1.38,-0.09,0.94,-0.70,-0.05,0.70,
4.555,1.38,-0.09,0.94,-0.70,0.03,0.69,
4.556,1.38,-0.09,0.94,-0.71,0.10,0.67,
4.557,1.33,0.16,1.09,-0.71,0.10,0.67,
4.559,1.33,0.16,1.09,-0.71,0.18,0.66,
4.561,1.25,0.40,1.27,-0.71,0.18,0.66,
4.562,1.25,0.40,1.27,-0.71,0.25,0.64,
4.563,1.25,0.40,1.27,-0.70,0.32,0.62,
4.566,1.25,0.40,1.27,-0.70,0.38,0.60,
4.566,1.18,0.59,1.42,-0.70,0.38,0.60,
4.568,1.18,0.59,1.42,-0.69,0.43,0.57,
4.577,1.11,0.76,1.59,-0.69,0.43,0.57,
4.577,1.11,0.76,1.59,-0.68,0.48,0.55,
4.578,1.11,0.76,1.59,-0.67,0.53,0.53,
4.578,1.11,0.76,1.59,-0.65,0.57,0.50,
4.578,1.03,0.91,1.74,-0.65,0.57,0.50,
4.579,1.03,0.91,1.74,-0.63,0.61,0.47,
4.581,1.03,0.91,1.74,-0.62,0.64,0.45,
4.581,0.93,1.01,1.83,-0.62,0.64,0.45,
4.583,0.93,1.01,1.83,-0.59,0.67,0.42,
4.586,0.93,1.01,1.83,-0.57,0.70,0.39,
4.586,0.79,1.09,1.91,-0.57,0.70,0.39,
4.589,0.79,1.09,1.91,-0.55,0.72,0.37,
4.59,0.61,1.14,1.97,-0.55,0.72,0.37,
4.591,0.61,1.14,1.97,-0.52,0.74,0.34,
4.593,0.61,1.14,1.97,-0.50,0.75,0.32,
4.595,0.47,1.22,2.01,-0.50,0.75,0.32,
4.596,0.47,1.22,2.01,-0.47,0.76,0.30,
4.597,0.47,1.22,2.01,-0.44,0.76,0.27,
4.6,0.31,1.28,2.02,-0.44,0.76,0.27,
4.601,0.31,1.28,2.02,-0.41,0.77,0.25,
4.604,0.31,1.28,2.02,-0.38,0.76,0.23,
4.605,0.31,1.28,2.02,-0.34,0.75,0.22,
4.605,0.15,1.28,1.99,-0.34,0.75,0.22,
4.608,0.15,1.28,1.99,-0.31,0.75,0.20,
4.61,0.15,1.28,1.99,-0.28,0.73,0.19,
4.61,-0.05,1.28,1.94,-0.28,0.73,0.19,
4.613,-0.05,1.28,1.94,-0.25,0.71,0.18,
4.614,-0.26,1.27,1.89,-0.25,0.71,0.18,
4.615,-0.26,1.27,1.89,-0.22,0.69,0.18,
4.618,-0.26,1.27,1.89,-0.18,0.67,0.17,
4.621,-0.26,1.27,1.89,-0.15,0.64,0.18,
4.621,-0.48,1.26,1.82,-0.15,0.64,0.18,
4.622,-0.48,1.26,1.82,-0.12,0.62,0.18,
4.625,-0.64,1.22,1.74,-0.12,0.62,0.18,
4.625,-0.64,1.22,1.74,-0.09,0.59,0.18,
4.627,-0.64,1.22,1.74,-0.06,0.55,0.19,
4.629,-0.78,1.18,1.67,-0.06,0.55,0.19,
4.629,-0.78,1.18,1.67,-0.02,0.53,0.20,
4.631,-0.78,1.18,1.67,0.01,0.49,0.21,
4.634,-0.88,1.10,1.58,0.01,0.49,0.21,
4.634,-0.88,1.10,1.58,0.04,0.46,0.22,
4.636,-0.88,1.10,1.58,0.08,0.42,0.23,
4.64,-0.88,1.10,1.58,0.11,0.39,0.24,
4.641,-0.94,1.12,1.51,0.11,0.39,0.24,
4.642,-0.94,1.12,1.51,0.15,0.36,0.26,
4.644,-1.02,1.10,1.41,0.15,0.36,0.26,
4.645,-1.02,1.10,1.41,0.18,0.32,0.28,
4.646,-1.02,1.10,1.41,0.21,0.29,0.30,
4.648,-1.02,1.10,1.41,0.25,0.26,0.32,
4.649,-1.10,1.14,1.27,0.25,0.26,0.32,
4.652,-1.10,1.14,1.27,0.28,0.23,0.34,
4.654,-1.10,1.14,1.27,0.31,0.19,0.36,
4.654,-1.19,1.17,1.12,0.31,0.19,0.36,
4.656,-1.19,1.17,1.12,0.34,0.16,0.38,
4.659,-1.23,1.23,0.97,0.34,0.16,0.38,
4.659,-1.23,1.23,0.97,0.37,0.13,0.41,
4.661,-1.23,1.23,0.97,0.39,0.11,0.43,
4.663,-1.26,1.30,0.81,0.39,0.11,0.43,
4.664,-1.26,1.30,0.81,0.42,0.08,0.45,
4.665,-1.26,1.30,0.81,0.44,0.05,0.48,
4.669,-1.29,1.36,0.62,0.44,0.05,0.48,
4.669,-1.29,1.36,0.62,0.46,0.03,0.50,
4.67,-1.29,1.36,0.62,0.47,-0.00,0.52,
4.674,-1.29,1.46,0.46,0.47,-0.00,0.52,
4.675,-1.29,1.46,0.46,0.49,-0.02,0.54,
4.677,-1.29,1.46,0.46,0.50,-0.05,0.55,
4.679,-1.29,1.46,0.46,0.51,-0.07,0.57,
4.679,-1.27,1.57,0.30,0.51,-0.07,0.57,
4.68,-1.27,1.57,0.30,0.51,-0.08,0.59,
4.683,-1.27,1.57,0.30,0.52,-0.10,0.60,
4.683,-1.22,1.71,0.13,0.52,-0.10,0.60,
4.685,-1.22,1.71,0.13,0.52,-0.12,0.62,
4.687,-1.22,1.71,0.13,0.52,-0.13,0.63,
4.688,-1.18,1.81,-0.04,0.52,-0.13,0.63,
4.692,-1.18,1.81,-0.04,0.52,-0.14,0.64,
4.693,-1.18,1.81,-0.04,0.52,-0.15,0.65,
4.693,-1.10,1.96,-0.20,0.52,-0.15,0.65,
4.695,-1.10,1.96,-0.20,0.52,-0.15,0.67,
4.697,-1.04,2.07,-0.34,0.52,-0.15,0.67,
4.697,-1.04,2.07,-0.34,0.51,-0.16,0.67,
4.699,-1.04,2.07,-0.34,0.50,-0.16,0.68,
4.703,-0.92,2.21,-0.47,0.50,-0.16,0.68,
4.703,-0.92,2.21,-0.47,0.49,-0.16,0.68,
4.704,-0.92,2.21,-0.47,0.48,-0.15,0.69,
4.707,-0.92,2.21,-0.47,0.47,-0.14,0.69,
4.708,-0.83,2.32,-0.60,0.47,-0.14,0.69,
4.709,-0.83,2.32,-0.60,0.45,-0.14,0.70,
4.713,-0.69,2.41,-0.71,0.45,-0.14,0.70,
4.713,-0.69,2.41,-0.71,0.44,-0.12,0.69,
4.714,-0.69,2.41,-0.71,0.42,-0.11,0.69,
4.716,-0.59,2.49,-0.80,0.42,-0.11,0.69,
4.717,-0.59,2.49,-0.80,0.41,-0.10,0.69,
4.719,-0.59,2.49,-0.80,0.40,-0.08,0.69,
4.723,-0.59,2.49,-0.80,0.38,-0.07,0.69,
4.723,-0.45,2.52,-0.88,0.38,-0.07,0.69,
4.724,-0.45,2.52,-0.88,0.36,-0.06,0.69,
4.727,-0.45,2.52,-0.88,0.35,-0.05,0.69,
4.727,-0.38,2.57,-0.92,0.35,-0.05,0.69,
4.728,-0.38,2.57,-0.92,0.33,-0.04,0.69,
4.732,-0.31,2.56,-0.95,0.33,-0.04,0.69,
4.732,-0.31,2.56,-0.95,0.32,-0.03,0.70,
4.734,-0.31,2.56,-0.95,0.30,-0.02,0.70,
4.736,-0.27,2.53,-0.96,0.30,-0.02,0.70,
4.737,-0.27,2.53,-0.96,0.29,-0.02,0.70,
4.739,-0.27,2.53,-0.96,0.27,-0.02,0.70,
4.741,-0.27,2.53,-0.96,0.26,-0.01,0.71,
4.741,-0.20,2.50,-0.96,0.26,-0.01,0.71,
4.743,-0.20,2.50,-0.96,0.26,-0.01,0.71,
4.746,-0.16,2.45,-0.95,0.26,-0.01,0.71,
4.746,-0.16,2.45,-0.95,0.24,-0.01,0.72,
4.748,-0.16,2.45,-0.95,0.23,-0.01,0.72,
4.751,-0.14,2.41,-0.95,0.23,-0.01,0.72,
4.751,-0.14,2.41,-0.95,0.22,-0.01,0.73,
4.752,-0.14,2.41,-0.95,0.21,-0.01,0.74,
4.756,-0.14,2.41,-0.95,0.20,-0.02,0.75,
4.757,-0.09,2.41,-0.98,0.20,-0.02,0.75,
4.758,-0.09,2.41,-0.98,0.20,-0.04,0.76,
4.761,-0.10,2.43,-0.87,0.20,-0.04,0.76,
4.761,-0.10,2.43,-0.87,0.20,-0.05,0.77,
4.762,-0.10,2.43,-0.87,0.19,-0.07,0.78,
4.765,-0.08,2.40,-0.76,0.19,-0.07,0.78,
4.765,-0.08,2.40,-0.76,0.20,-0.10,0.80,
4.767,-0.08,2.40,-0.76,0.20,-0.13,0.81,
4.771,-0.08,2.40,-0.76,0.21,-0.16,0.82,
4.771,-0.00,2.35,-0.64,0.21,-0.16,0.82,
4.774,-0.00,2.35,-0.64,0.22,-0.19,0.84,
4.776,-0.00,2.35,-0.64,0.23,-0.23,0.85,
4.776,0.16,2.22,-0.52,0.23,-0.23,0.85,
4.777,0.16,2.22,-0.52,0.24,-0.27,0.86,
4.78,0.39,2.09,-0.44,0.24,-0.27,0.86,
4.78,0.39,2.09,-0.44,0.25,-0.31,0.87,
4.783,0.39,2.09,-0.44,0.27,-0.35,0.87,
4.784,0.39,2.09,-0.44,0.28,-0.39,0.88,
4.785,0.67,1.93,-0.35,0.28,-0.39,0.88,
4.787,0.67,1.93,-0.35,0.29,-0.44,0.88,
4.793,0.67,1.93,-0.35,0.31,-0.48,0.88,
4.794,0.93,1.71,-0.30,0.31,-0.48,0.88,
4.794,0.93,1.71,-0.30,0.32,-0.53,0.88,
4.794,0.93,1.71,-0.30,0.34,-0.57,0.88,
4.794,1.25,1.45,-0.25,0.34,-0.57,0.88,
4.796,1.25,1.45,-0.25,0.35,-0.62,0.87,
4.799,1.25,1.45,-0.25,0.36,-0.66,0.87,
4.799,1.55,1.20,-0.20,0.36,-0.66,0.87,
4.801,1.55,1.20,-0.20,0.37,-0.71,0.86,
4.806,1.55,1.20,-0.20,0.39,-0.75,0.86,
4.806,1.85,0.93,-0.15,0.39,-0.75,0.86,
4.806,1.85,0.93,-0.15,0.40,-0.80,0.85,
4.809,2.19,0.69,-0.13,0.40,-0.80,0.85,
4.809,2.19,0.69,-0.13,0.41,-0.84,0.84,
4.811,2.19,0.69,-0.13,0.43,-0.88,0.84,
4.813,2.19,0.69,-0.13,0.44,-0.92,0.83,
4.813,2.55,0.40,-0.10,0.44,-0.92,0.83,
4.816,2.55,0.40,-0.10,0.46,-0.96,0.82,
4.818,2.55,0.40,-0.10,0.47,-1.00,0.81,
4.819,2.96,0.11,-0.06,0.47,-1.00,0.81,
4.821,2.96,0.11,-0.06,0.49,-1.04,0.80,
4.822,3.40,-0.27,-0.05,0.49,-1.04,0.80,
4.823,3.40,-0.27,-0.05,0.50,-1.07,0.79,
4.826,3.40,-0.27,-0.05,0.51,-1.11,0.78,
4.829,3.87,-0.64,-0.06,0.51,-1.11,0.78,
4.829,3.87,-0.64,-0.06,0.53,-1.15,0.76,
4.83,3.87,-0.64,-0.06,0.54,-1.18,0.75,
4.833,4.29,-1.08,-0.06,0.54,-1.18,0.75,
4.833,4.29,-1.08,-0.06,0.55,-1.22,0.74,
4.835,4.29,-1.08,-0.06,0.56,-1.25,0.73,
4.838,4.73,-1.51,-0.05,0.56,-1.25,0.73,
4.838,4.73,-1.51,-0.05,0.57,-1.28,0.72,
4.839,4.73,-1.51,-0.05,0.57,-1.31,0.71,
4.843,4.73,-1.51,-0.05,0.58,-1.35,0.70,
4.844,5.11,-1.90,-0.01,0.58,-1.35,0.70,
4.845,5.11,-1.90,-0.01,0.59,-1.37,0.70,
4.847,5.11,-1.90,-0.01,0.60,-1.40,0.69,
4.847,5.47,-2.24,0.01,0.60,-1.40,0.69,
4.849,5.47,-2.24,0.01,0.61,-1.42,0.69,
4.852,5.47,-2.24,0.01,0.62,-1.44,0.69,
4.852,5.79,-2.51,0.01,0.62,-1.44,0.69,
4.855,5.79,-2.51,0.01,0.63,-1.46,0.69,
4.858,5.79,-2.51,0.01,0.64,-1.47,0.69,
4.858,6.10,-2.74,0.00,0.64,-1.47,0.69,
4.86,6.10,-2.74,0.00,0.65,-1.48,0.70,
4.862,6.10,-2.74,0.00,0.66,-1.48,0.70,
4.863,6.30,-2.91,0.04,0.66,-1.48,0.70,
