
time,ax,ay,az,wx,wy,wz,
0.001,-0.13,-0.23,-0.10,-0.06,0.28,0.20,
0.002,-0.13,-0.23,-0.10,-0.07,0.25,0.21,
0.002,-0.34,-0.08,0.14,-0.07,0.25,0.21,
0.002,-0.34,-0.08,0.14,-0.08,0.22,0.23,
0.005,-0.34,-0.08,0.14,-0.09,0.19,0.25,
0.005,-0.50,0.07,0.28,-0.09,0.19,0.25,
0.006,-0.50,0.07,0.28,-0.10,0.17,0.28,
0.013,-0.56,0.22,0.22,-0.10,0.17,0.28,
0.013,-0.56,0.22,0.22,-0.12,0.16,0.30,
0.014,-0.56,0.22,0.22,-0.13,0.16,0.32,
0.014,-0.56,0.22,0.22,-0.15,0.16,0.35,
0.014,-0.50,0.31,-0.00,-0.15,0.16,0.35,
0.016,-0.50,0.31,-0.00,-0.16,0.15,0.37,
0.018,-0.37,0.37,-0.03,-0.16,0.15,0.37,
0.018,-0.37,0.37,-0.03,-0.17,0.14,0.39,
0.02,-0.37,0.37,-0.03,-0.18,0.11,0.40,
0.023,-0.27,0.34,0.21,-0.18,0.11,0.40,
0.023,-0.27,0.34,0.21,-0.19,0.08,0.41,
0.025,-0.27,0.34,0.21,-0.19,0.05,0.43,
0.028,-0.27,0.34,0.21,-0.19,0.00,0.44,
0.028,-0.21,0.24,0.47,-0.19,0.00,0.44,
0.03,-0.21,0.24,0.47,-0.19,-0.04,0.44,
0.033,-0.14,0.13,0.68,-0.19,-0.04,0.44,
0.034,-0.14,0.13,0.68,-0.18,-0.08,0.45,
0.035,-0.14,0.13,0.68,-0.17,-0.12,0.46,
0.038,-0.11,0.02,0.74,-0.17,-0.12,0.46,
0.038,-0.11,0.02,0.74,-0.15,-0.15,0.46,
0.04,-0.11,0.02,0.74,-0.14,-0.17,0.47,
0.042,-0.11,0.02,0.74,-0.13,-0.19,0.47,
0.043,-0.02,0.01,0.67,-0.13,-0.19,0.47,
0.045,-0.02,0.01,0.67,-0.12,-0.21,0.47,
0.047,0.12,0.06,0.60,-0.12,-0.21,0.47,
0.048,0.12,0.06,0.60,-0.12,-0.22,0.47,
0.05,0.12,0.06,0.60,-0.11,-0.24,0.47,
0.052,0.12,0.06,0.60,-0.11,-0.25,0.48,
0.052,0.24,0.08,0.63,-0.11,-0.25,0.48,
0.055,0.24,0.08,0.63,-0.10,-0.28,0.48,
0.059,0.24,0.08,0.63,-0.09,-0.31,0.48,
0.059,0.32,0.04,0.82,-0.09,-0.31,0.48,
0.06,0.32,0.04,0.82,-0.08,-0.34,0.48,
0.062,0.32,0.04,0.82,-0.07,-0.37,0.47,
0.063,0.37,-0.05,1.02,-0.07,-0.37,0.47,
0.065,0.37,-0.05,1.02,-0.06,-0.40,0.47,
0.073,0.36,-0.18,1.19,-0.06,-0.40,0.47,
0.074,0.36,-0.18,1.19,-0.04,-0.43,0.46,
0.074,0.36,-0.18,1.19,-0.03,-0.46,0.45,
0.074,0.31,-0.32,1.16,-0.03,-0.46,0.45,
0.075,0.31,-0.32,1.16,-0.01,-0.48,0.44,
0.075,0.31,-0.32,1.16,0.01,-0.50,0.43,
0.077,0.31,-0.32,1.16,0.02,-0.53,0.42,
0.077,0.27,-0.46,1.18,0.02,-0.53,0.42,
0.079,0.27,-0.46,1.18,0.04,-0.55,0.42,
0.082,0.23,-0.56,1.21,0.04,-0.55,0.42,
0.082,0.23,-0.56,1.21,0.05,-0.58,0.41,
0.089,0.23,-0.56,1.21,0.05,-0.61,0.39,
0.089,0.23,-0.56,1.21,0.01,-0.64,0.37,
0.09,0.23,-0.73,1.16,0.01,-0.64,0.37,
0.09,0.23,-0.73,1.16,-0.04,-0.67,0.34,
0.091,0.45,-1.22,0.74,-0.04,-0.67,0.34,
0.092,0.45,-1.22,0.74,-0.09,-0.69,0.32,
0.094,0.45,-1.22,0.74,-0.13,-0.71,0.29,
0.096,0.45,-1.22,0.74,-0.17,-0.72,0.26,
0.096,0.77,-1.54,0.41,-0.17,-0.72,0.26,
0.098,0.77,-1.54,0.41,-0.19,-0.72,0.24,
0.101,0.77,-1.54,0.41,-0.21,-0.72,0.21,
0.101,0.83,-1.73,0.03,-0.21,-0.72,0.21,
0.103,0.83,-1.73,0.03,-0.22,-0.71,0.18,
0.107,0.83,-1.73,0.03,-0.23,-0.69,0.17,
0.107,0.79,-1.57,-0.33,-0.23,-0.69,0.17,
0.108,0.79,-1.57,-0.33,-0.22,-0.67,0.15,
0.11,0.66,-1.12,-0.40,-0.22,-0.67,0.15,
0.111,0.66,-1.12,-0.40,-0.21,-0.65,0.14,
0.113,0.66,-1.12,-0.40,-0.20,-0.64,0.15,
0.117,0.66,-1.12,-0.40,-0.19,-0.63,0.15,
0.117,0.24,-0.44,-0.34,-0.19,-0.63,0.15,
0.117,0.24,-0.44,-0.34,-0.18,-0.62,0.17,
0.12,0.24,-0.44,-0.34,-0.18,-0.62,0.19,
0.12,-0.17,0.22,-0.25,-0.18,-0.62,0.19,
0.125,-0.17,0.22,-0.25,-0.17,-0.64,0.22,
0.125,-0.17,0.22,-0.25,-0.16,-0.66,0.25,
0.125,-0.55,0.94,0.06,-0.16,-0.66,0.25,
0.127,-0.55,0.94,0.06,-0.15,-0.68,0.30,
0.13,-0.55,0.94,0.06,-0.13,-0.71,0.34,
0.13,-0.88,1.43,0.55,-0.13,-0.71,0.34,
0.133,-0.88,1.43,0.55,-0.12,-0.75,0.38,
0.134,-1.01,1.58,0.87,-0.12,-0.75,0.38,
0.135,-1.01,1.58,0.87,-0.11,-0.78,0.43,
0.137,-1.01,1.58,0.87,-0.09,-0.80,0.46,
0.14,-0.98,1.38,0.92,-0.09,-0.80,0.46,
0.14,-0.98,1.38,0.92,-0.08,-0.82,0.49,
0.142,-0.98,1.38,0.92,-0.06,-0.83,0.51,
0.144,-0.81,0.95,0.81,-0.06,-0.83,0.51,
0.145,-0.81,0.95,0.81,-0.04,-0.83,0.53,
0.147,-0.81,0.95,0.81,-0.03,-0.81,0.53,
0.15,-0.56,0.36,0.53,-0.03,-0.81,0.53,
0.15,-0.56,0.36,0.53,-0.01,-0.80,0.53,
0.151,-0.56,0.36,0.53,0.01,-0.77,0.52,
0.154,-0.30,-0.15,0.20,0.01,-0.77,0.52,
0.154,-0.30,-0.15,0.20,0.02,-0.75,0.50,
0.157,-0.30,-0.15,0.20,0.03,-0.72,0.49,
0.159,-0.12,-0.48,0.06,0.03,-0.72,0.49,
0.159,-0.12,-0.48,0.06,0.05,-0.70,0.47,
0.161,-0.12,-0.48,0.06,0.06,-0.68,0.45,
0.164,0.00,-0.55,0.04,0.06,-0.68,0.45,
0.164,0.00,-0.55,0.04,0.08,-0.66,0.44,
0.173,0.00,-0.55,0.04,0.08,-0.64,0.45,
0.173,0.10,-0.43,0.04,0.08,-0.64,0.45,
0.174,0.10,-0.43,0.04,0.08,-0.63,0.45,
0.174,0.10,-0.43,0.04,0.09,-0.64,0.45,
0.174,0.23,-0.22,0.12,0.09,-0.64,0.45,
0.174,0.23,-0.22,0.12,0.10,-0.66,0.45,
0.176,0.23,-0.22,0.12,0.10,-0.66,0.45,
0.178,0.16,-0.08,0.30,0.10,-0.66,0.45,
0.179,0.16,-0.08,0.30,0.11,-0.66,0.45,
0.182,0.16,-0.08,0.30,0.11,-0.65,0.45,
0.187,0.16,0.03,-0.07,0.11,-0.65,0.45,
0.188,0.16,0.03,-0.07,0.11,-0.65,0.45,
0.188,0.16,0.03,-0.07,0.12,-0.65,0.45,
0.188,0.15,0.07,-0.01,0.12,-0.65,0.45,
0.188,0.15,0.07,-0.01,0.13,-0.65,0.45,
0.191,0.15,0.07,-0.01,0.13,-0.65,0.45,
0.193,0.15,0.07,-0.01,0.14,-0.64,0.45,
0.193,0.03,0.04,-0.05,0.14,-0.64,0.45,
0.195,0.03,0.04,-0.05,0.15,-0.62,0.45,
0.197,-0.07,0.03,-0.20,0.15,-0.62,0.45,
0.197,-0.07,0.03,-0.20,0.16,-0.60,0.45,
0.201,-0.07,0.03,-0.20,0.17,-0.59,0.45,
0.202,-0.07,0.03,-0.20,0.17,-0.57,0.45,
0.202,-0.16,0.00,-0.28,0.17,-0.57,0.45,
0.205,-0.16,0.00,-0.28,0.18,-0.55,0.46,
0.207,-0.16,0.00,-0.28,0.19,-0.52,0.46,
0.207,-0.19,-0.01,-0.27,0.19,-0.52,0.46,
0.209,-0.19,-0.01,-0.27,0.20,-0.50,0.46,
0.212,-0.18,0.02,-0.21,0.20,-0.50,0.46,
0.212,-0.18,0.02,-0.21,0.21,-0.48,0.47,
0.215,-0.18,0.02,-0.21,0.21,-0.46,0.47,
0.218,-0.14,0.05,-0.20,0.21,-0.46,0.47,
0.219,-0.14,0.05,-0.20,0.22,-0.44,0.48,
0.219,-0.14,0.05,-0.20,0.23,-0.41,0.49,
0.221,-0.13,0.09,-0.16,0.23,-0.41,0.49,
0.222,-0.13,0.09,-0.16,0.24,-0.39,0.49,
0.225,-0.13,0.09,-0.16,0.24,-0.38,0.50,
0.228,-0.10,0.06,-0.09,0.24,-0.38,0.50,
0.228,-0.10,0.06,-0.09,0.25,-0.35,0.51,
0.229,-0.10,0.06,-0.09,0.26,-0.33,0.51,
0.232,-0.05,0.04,-0.11,0.26,-0.33,0.51,
0.232,-0.05,0.04,-0.11,0.26,-0.30,0.51,
0.234,-0.05,0.04,-0.11,0.27,-0.26,0.51,
0.236,0.04,-0.01,-0.21,0.27,-0.26,0.51,
0.237,0.04,-0.01,-0.21,0.27,-0.23,0.51,
0.239,0.04,-0.01,-0.21,0.28,-0.19,0.51,
0.241,0.19,-0.14,-0.27,0.28,-0.19,0.51,
0.241,0.19,-0.14,-0.27,0.29,-0.15,0.51,
0.243,0.19,-0.14,-0.27,0.30,-0.12,0.51,
0.246,0.26,-0.32,-0.16,0.30,-0.12,0.51,
0.246,0.26,-0.32,-0.16,0.32,-0.09,0.51,
0.248,0.26,-0.32,-0.16,0.34,-0.06,0.50,
0.251,0.46,-0.34,-0.05,0.34,-0.06,0.50,
0.251,0.46,-0.34,-0.05,0.35,-0.02,0.50,
0.253,0.46,-0.34,-0.05,0.37,0.02,0.49,
0.256,0.58,-0.24,-0.09,0.37,0.02,0.49,
0.256,0.58,-0.24,-0.09,0.38,0.06,0.48,
0.264,0.58,-0.24,-0.09,0.39,0.10,0.46,
0.264,0.58,-0.24,-0.09,0.41,0.15,0.45,
0.264,0.64,-0.20,-0.18,0.41,0.15,0.45,
0.265,0.64,-0.20,-0.18,0.42,0.20,0.42,
0.266,0.64,-0.20,-0.18,0.43,0.24,0.39,
0.266,0.56,-0.28,-0.25,0.43,0.24,0.39,
0.268,0.56,-0.28,-0.25,0.44,0.27,0.37,
0.27,0.40,-0.49,-0.24,0.44,0.27,0.37,
0.27,0.40,-0.49,-0.24,0.45,0.30,0.35,
0.273,0.40,-0.49,-0.24,0.45,0.30,0.34,
0.276,0.40,-0.49,-0.24,0.46,0.29,0.34,
0.276,0.26,-0.53,-0.06,0.46,0.29,0.34,
0.278,0.26,-0.53,-0.06,0.47,0.28,0.35,
0.28,0.26,-0.53,-0.06,0.47,0.27,0.36,
0.28,0.26,-0.39,0.04,0.47,0.27,0.36,
0.283,0.26,-0.39,0.04,0.47,0.27,0.37,
0.285,0.26,-0.39,0.04,0.48,0.29,0.37,
0.285,0.40,-0.20,-0.21,0.48,0.29,0.37,
0.287,0.40,-0.20,-0.21,0.48,0.30,0.37,
0.29,0.40,-0.20,-0.21,0.50,0.27,0.35,
0.29,0.54,-0.11,-0.53,0.50,0.27,0.35,
0.292,0.54,-0.11,-0.53,0.53,0.23,0.32,
0.294,0.47,-0.37,0.12,0.53,0.23,0.32,
0.295,0.47,-0.37,0.12,0.56,0.21,0.30,
0.297,0.47,-0.37,0.12,0.58,0.18,0.27,
0.3,0.26,-0.62,0.37,0.58,0.18,0.27,
0.303,0.26,-0.62,0.37,0.61,0.16,0.25,
0.303,0.26,-0.62,0.37,0.64,0.12,0.23,
0.305,0.05,-0.77,0.60,0.64,0.12,0.23,
0.305,0.05,-0.77,0.60,0.67,0.09,0.22,
0.308,0.05,-0.77,0.60,0.69,0.06,0.21,
0.309,-0.16,-0.70,0.89,0.69,0.06,0.21,
0.31,-0.16,-0.70,0.89,0.72,0.04,0.20,
0.312,-0.16,-0.70,0.89,0.75,0.01,0.18,
0.314,-0.16,-0.70,0.89,0.78,-0.01,0.17,
0.314,-0.15,-0.60,1.06,0.78,-0.01,0.17,
0.316,-0.15,-0.60,1.06,0.80,-0.02,0.16,
0.319,0.04,-0.53,1.07,0.80,-0.02,0.16,
0.319,0.04,-0.53,1.07,0.83,-0.03,0.14,
0.321,0.04,-0.53,1.07,0.86,-0.02,0.12,
0.324,0.22,-0.52,0.91,0.86,-0.02,0.12,
0.324,0.22,-0.52,0.91,0.89,-0.01,0.10,
0.326,0.22,-0.52,0.91,0.91,0.00,0.08,
0.328,0.38,-0.60,0.61,0.91,0.00,0.08,
0.329,0.38,-0.60,0.61,0.93,0.03,0.06,
0.331,0.38,-0.60,0.61,0.95,0.05,0.04,
0.334,0.48,-0.64,0.35,0.95,0.05,0.04,
0.334,0.48,-0.64,0.35,0.97,0.08,0.03,
0.336,0.48,-0.64,0.35,0.98,0.11,0.01,
0.338,0.51,-0.70,0.22,0.98,0.11,0.01,
0.339,0.51,-0.70,0.22,1.00,0.14,-0.01,
0.341,0.51,-0.70,0.22,1.01,0.17,-0.02,
0.343,0.51,-0.70,0.22,1.01,0.20,-0.04,
0.343,0.56,-0.77,0.15,1.01,0.20,-0.04,
0.345,0.56,-0.77,0.15,1.02,0.23,-0.06,
0.348,0.56,-0.77,0.15,1.02,0.26,-0.08,
0.348,0.64,-0.79,0.12,1.02,0.26,-0.08,
0.35,0.64,-0.79,0.12,1.02,0.28,-0.09,
0.353,0.64,-0.79,0.12,1.01,0.30,-0.11,
0.353,0.73,-0.80,0.12,1.01,0.30,-0.11,
0.355,0.73,-0.80,0.12,1.01,0.32,-0.13,
0.364,0.73,-0.80,0.12,1.01,0.35,-0.16,
0.365,0.77,-0.90,0.10,1.01,0.35,-0.16,
0.365,0.77,-0.90,0.10,1.00,0.37,-0.18,
0.365,0.84,-1.06,0.01,1.00,0.37,-0.18,
0.365,0.84,-1.06,0.01,0.99,0.40,-0.21,
0.366,0.84,-1.06,0.01,0.98,0.43,-0.24,
0.367,0.84,-1.06,0.01,0.97,0.45,-0.28,
0.367,0.97,-1.27,-0.18,0.97,0.45,-0.28,
0.371,0.97,-1.27,-0.18,0.96,0.47,-0.32,
0.372,1.21,-1.56,-0.31,0.96,0.47,-0.32,
0.373,1.21,-1.56,-0.31,0.94,0.49,-0.36,
0.375,1.21,-1.56,-0.31,0.92,0.51,-0.40,
0.376,1.33,-1.66,-0.44,0.92,0.51,-0.40,
0.377,1.33,-1.66,-0.44,0.90,0.53,-0.45,
0.379,1.33,-1.66,-0.44,0.88,0.55,-0.49,
0.381,1.29,-1.70,-0.48,0.88,0.55,-0.49,
0.381,1.29,-1.70,-0.48,0.86,0.58,-0.54,
0.384,1.29,-1.70,-0.48,0.84,0.60,-0.58,
0.386,1.29,-1.70,-0.48,0.82,0.63,-0.63,
0.386,1.19,-1.68,-0.51,0.82,0.63,-0.63,
0.389,1.19,-1.68,-0.51,0.80,0.66,-0.68,
0.391,1.12,-1.70,-0.67,0.80,0.66,-0.68,
0.391,1.12,-1.70,-0.67,0.78,0.69,-0.72,
0.393,1.12,-1.70,-0.67,0.76,0.72,-0.77,
0.396,1.12,-1.70,-0.67,0.74,0.75,-0.82,
0.397,1.05,-1.75,-0.86,0.74,0.75,-0.82,
0.399,1.05,-1.75,-0.86,0.72,0.78,-0.86,
0.401,1.04,-1.75,-1.13,0.72,0.78,-0.86,
0.401,1.04,-1.75,-1.13,0.70,0.81,-0.91,
0.403,1.04,-1.75,-1.13,0.68,0.83,-0.95,
0.406,1.04,-1.75,-1.13,0.67,0.82,-0.98,
0.406,0.91,-1.76,-1.32,0.67,0.82,-0.98,
0.408,0.91,-1.76,-1.32,0.66,0.77,-1.00,
0.411,0.91,-1.76,-1.32,0.66,0.71,-1.02,
0.411,0.71,-1.84,-1.10,0.66,0.71,-1.02,
0.413,0.71,-1.84,-1.10,0.67,0.64,-1.03,
0.415,0.64,-2.10,-0.82,0.67,0.64,-1.03,
0.416,0.64,-2.10,-0.82,0.67,0.57,-1.05,
0.418,0.64,-2.10,-0.82,0.68,0.50,-1.07,
0.42,0.64,-2.10,-0.82,0.68,0.44,-1.10,
0.42,0.84,-2.16,-0.96,0.68,0.44,-1.10,
0.422,0.84,-2.16,-0.96,0.69,0.37,-1.13,
0.425,0.84,-2.16,-0.96,0.70,0.31,-1.16,
0.425,0.86,-1.93,-0.92,0.70,0.31,-1.16,
0.427,0.86,-1.93,-0.92,0.72,0.25,-1.19,
0.43,0.80,-1.67,-0.72,0.72,0.25,-1.19,
0.43,0.80,-1.67,-0.72,0.74,0.20,-1.22,
0.432,0.80,-1.67,-0.72,0.76,0.14,-1.25,
0.435,0.80,-1.67,-0.72,0.79,0.09,-1.27,
0.435,0.65,-1.43,-0.47,0.79,0.09,-1.27,
0.438,0.65,-1.43,-0.47,0.83,0.03,-1.30,
0.441,0.65,-1.43,-0.47,0.86,-0.03,-1.31,
0.441,0.41,-1.10,-0.22,0.86,-0.03,-1.31,
0.442,0.41,-1.10,-0.22,0.91,-0.09,-1.33,
0.444,0.41,-1.10,-0.22,0.95,-0.15,-1.34,
0.445,0.05,-0.81,0.02,0.95,-0.15,-1.34,
0.447,0.05,-0.81,0.02,1.00,-0.20,-1.35,
0.449,0.05,-0.81,0.02,1.05,-0.26,-1.36,
0.449,-0.30,-0.47,0.25,1.05,-0.26,-1.36,
0.452,-0.30,-0.47,0.25,1.11,-0.31,-1.36,
0.454,-0.54,-0.24,0.47,1.11,-0.31,-1.36,
0.454,-0.54,-0.24,0.47,1.17,-0.37,-1.37,
0.459,-0.54,-0.24,0.47,1.23,-0.42,-1.37,
0.459,-0.54,-0.24,0.47,1.28,-0.47,-1.38,
0.459,-0.72,-0.02,0.62,1.28,-0.47,-1.38,
0.462,-0.72,-0.02,0.62,1.34,-0.50,-1.39,
0.464,-0.72,-0.02,0.62,1.40,-0.53,-1.40,
0.464,-0.79,0.17,0.53,1.40,-0.53,-1.40,
0.467,-0.79,0.17,0.53,1.46,-0.55,-1.41,
0.469,-0.68,0.02,0.22,1.46,-0.55,-1.41,
0.469,-0.68,0.02,0.22,1.51,-0.57,-1.43,
0.471,-0.68,0.02,0.22,1.55,-0.58,-1.45,
0.474,-0.68,0.02,0.22,1.60,-0.59,-1.47,
0.474,-0.50,-0.13,-0.26,1.60,-0.59,-1.47,
0.476,-0.50,-0.13,-0.26,1.64,-0.60,-1.49,
0.478,-0.41,-0.23,-0.72,1.64,-0.60,-1.49,
0.478,-0.41,-0.23,-0.72,1.67,-0.61,-1.51,
0.481,-0.41,-0.23,-0.72,1.71,-0.63,-1.53,
0.483,-0.41,-0.23,-0.72,1.74,-0.65,-1.56,
0.484,-0.35,-0.24,-1.21,1.74,-0.65,-1.56,
0.486,-0.35,-0.24,-1.21,1.76,-0.67,-1.58,
0.488,-0.35,-0.24,-1.21,1.77,-0.71,-1.61,
0.488,-0.20,-0.26,-1.74,1.77,-0.71,-1.61,
0.491,-0.20,-0.26,-1.74,1.78,-0.75,-1.63,
0.493,-0.04,-0.23,-2.44,1.78,-0.75,-1.63,
0.493,-0.04,-0.23,-2.44,1.77,-0.80,-1.65,
0.495,-0.04,-0.23,-2.44,1.78,-0.82,-1.64,
0.498,-0.04,-0.23,-2.44,1.79,-0.82,-1.61,
0.498,-0.41,-0.26,-3.07,1.79,-0.82,-1.61,
0.5,-0.41,-0.26,-3.07,1.80,-0.78,-1.57,
0.503,-1.85,-0.14,-3.27,1.80,-0.78,-1.57,
0.503,-1.85,-0.14,-3.27,1.82,-0.73,-1.51,
0.507,-1.85,-0.14,-3.27,1.83,-0.72,-1.46,
0.508,-1.85,-0.14,-3.27,1.83,-0.75,-1.41,
0.508,-2.95,0.13,-3.06,1.83,-0.75,-1.41,
0.511,-2.95,0.13,-3.06,1.81,-0.79,-1.36,
0.512,-2.95,0.13,-3.06,1.78,-0.83,-1.32,
0.513,-2.98,0.44,-3.10,1.78,-0.83,-1.32,
0.515,-2.98,0.44,-3.10,1.75,-0.82,-1.29,
0.517,-2.98,0.44,-3.10,1.70,-0.75,-1.25,
0.518,-2.67,0.56,-3.40,1.70,-0.75,-1.25,
0.519,-2.67,0.56,-3.40,1.64,-0.63,-1.20,
0.522,-2.70,0.72,-4.55,1.64,-0.63,-1.20,
0.522,-2.70,0.72,-4.55,1.55,-0.49,-1.16,
0.524,-2.70,0.72,-4.55,1.44,-0.41,-1.10,
0.527,-2.70,0.72,-4.55,1.32,-0.37,-1.03,
0.527,-2.84,1.14,-5.15,1.32,-0.37,-1.03,
0.53,-2.84,1.14,-5.15,1.20,-0.39,-0.95,
0.532,-3.07,1.68,-4.27,1.20,-0.39,-0.95,
0.533,-3.07,1.68,-4.27,1.06,-0.45,-0.86,
0.534,-3.07,1.68,-4.27,0.92,-0.53,-0.76,
0.536,-3.26,2.01,-3.33,0.92,-0.53,-0.76,
0.537,-3.26,2.01,-3.33,0.76,-0.58,-0.64,
0.539,-3.26,2.01,-3.33,0.55,-0.57,-0.50,
0.542,-3.26,2.01,-3.33,0.33,-0.52,-0.38,
0.542,-3.30,2.27,-3.72,0.33,-0.52,-0.38,
0.544,-3.30,2.27,-3.72,0.11,-0.48,-0.28,
0.547,-3.04,2.02,-5.32,0.11,-0.48,-0.28,
0.547,-3.04,2.02,-5.32,-0.07,-0.45,-0.18,
0.549,-3.04,2.02,-5.32,-0.23,-0.41,-0.08,
0.551,-2.81,1.35,-5.32,-0.23,-0.41,-0.08,
0.551,-2.81,1.35,-5.32,-0.38,-0.34,0.02,
0.554,-2.81,1.35,-5.32,-0.51,-0.24,0.12,
0.557,-2.81,1.35,-5.32,-0.66,-0.14,0.21,
0.557,-2.52,0.85,-5.72,-0.66,-0.14,0.21,
0.558,-2.52,0.85,-5.72,-0.80,-0.02,0.28,
0.561,-2.03,0.54,-6.19,-0.80,-0.02,0.28,
0.561,-2.03,0.54,-6.19,-0.93,0.09,0.35,
0.563,-2.03,0.54,-6.19,-1.06,0.19,0.42,
0.573,-2.03,0.54,-6.19,-1.18,0.28,0.49,
0.574,-1.59,0.35,-5.92,-1.18,0.28,0.49,
0.574,-1.59,0.35,-5.92,-1.29,0.36,0.56,
0.575,-1.36,0.21,-5.07,-1.29,0.36,0.56,
0.575,-1.36,0.21,-5.07,-1.39,0.42,0.63,
0.575,-1.36,0.21,-5.07,-1.48,0.47,0.70,
0.575,-1.20,0.07,-4.01,-1.48,0.47,0.70,
0.576,-1.20,0.07,-4.01,-1.56,0.49,0.78,
0.578,-1.20,0.07,-4.01,-1.64,0.50,0.85,
0.581,-1.20,0.07,-4.01,-1.70,0.49,0.93,
0.581,-1.09,-0.06,-2.91,-1.70,0.49,0.93,
0.583,-1.09,-0.06,-2.91,-1.76,0.46,1.02,
0.586,-1.09,-0.06,-2.91,-1.81,0.43,1.11,
0.586,-1.06,-0.01,-1.94,-1.81,0.43,1.11,
0.589,-1.06,-0.01,-1.94,-1.85,0.42,1.20,
0.59,-1.06,-0.01,-1.94,-1.88,0.42,1.29,
0.59,-1.19,0.22,-1.55,-1.88,0.42,1.29,
0.594,-1.19,0.22,-1.55,-1.91,0.44,1.37,
0.595,-1.32,0.26,-1.81,-1.91,0.44,1.37,
0.595,-1.32,0.26,-1.81,-1.93,0.47,1.44,
0.597,-1.32,0.26,-1.81,-1.95,0.51,1.51,
0.599,-1.32,0.22,-2.25,-1.95,0.51,1.51,
0.6,-1.32,0.22,-2.25,-1.96,0.56,1.57,
0.602,-1.32,0.22,-2.25,-1.97,0.61,1.62,
0.605,-1.32,0.22,-2.25,-1.97,0.66,1.66,
0.605,-1.15,0.10,-2.54,-1.97,0.66,1.66,
0.607,-1.15,0.10,-2.54,-1.97,0.70,1.69,
0.609,-0.82,-0.09,-2.56,-1.97,0.70,1.69,
0.61,-0.82,-0.09,-2.56,-1.96,0.73,1.71,
0.612,-0.82,-0.09,-2.56,-1.94,0.75,1.71,
0.614,-0.47,-0.32,-2.26,-1.94,0.75,1.71,
0.615,-0.47,-0.32,-2.26,-1.91,0.76,1.71,
0.617,-0.47,-0.32,-2.26,-1.89,0.75,1.71,
0.62,-0.18,-0.69,-1.71,-1.89,0.75,1.71,
0.62,-0.18,-0.69,-1.71,-1.86,0.73,1.70,
0.622,-0.18,-0.69,-1.71,-1.83,0.70,1.68,
0.625,0.06,-1.08,-1.10,-1.83,0.70,1.68,
0.626,0.06,-1.08,-1.10,-1.79,0.66,1.67,
0.627,0.06,-1.08,-1.10,-1.75,0.61,1.64,
0.629,0.06,-1.08,-1.10,-1.71,0.55,1.62,
0.629,0.29,-1.41,-0.64,-1.71,0.55,1.62,
0.632,0.29,-1.41,-0.64,-1.67,0.48,1.59,
0.634,0.45,-1.72,-0.36,-1.67,0.48,1.59,
0.634,0.45,-1.72,-0.36,-1.63,0.41,1.56,
0.636,0.45,-1.72,-0.36,-1.58,0.34,1.53,
0.638,0.53,-1.97,-0.25,-1.58,0.34,1.53,
0.639,0.53,-1.97,-0.25,-1.54,0.26,1.49,
0.641,0.53,-1.97,-0.25,-1.49,0.18,1.45,
0.643,0.53,-1.97,-0.25,-1.44,0.11,1.41,
0.644,0.57,-2.16,-0.25,-1.44,0.11,1.41,
0.646,0.57,-2.16,-0.25,-1.38,0.03,1.37,
0.649,0.57,-2.16,-0.25,-1.32,-0.05,1.33,
0.65,0.57,-2.17,-0.31,-1.32,-0.05,1.33,
0.651,0.57,-2.17,-0.31,-1.26,-0.13,1.29,
0.653,0.57,-2.17,-0.31,-1.20,-0.22,1.25,
0.654,0.54,-2.05,-0.28,-1.20,-0.22,1.25,
0.655,0.54,-2.05,-0.28,-1.13,-0.31,1.21,
0.658,0.47,-1.86,-0.16,-1.13,-0.31,1.21,
0.658,0.47,-1.86,-0.16,-1.07,-0.40,1.18,
0.66,0.47,-1.86,-0.16,-1.00,-0.50,1.14,
0.663,0.47,-1.86,-0.16,-0.93,-0.60,1.11,
0.663,0.33,-1.58,-0.05,-0.93,-0.60,1.11,
0.672,0.33,-1.58,-0.05,-0.86,-0.71,1.09,
0.673,0.33,-1.58,-0.05,-0.79,-0.81,1.07,
0.673,0.20,-1.30,0.01,-0.79,-0.81,1.07,
0.674,0.20,-1.30,0.01,-0.72,-0.91,1.05,
0.674,0.06,-1.09,-0.04,-0.72,-0.91,1.05,
0.674,0.06,-1.09,-0.04,-0.65,-1.01,1.04,
0.675,0.06,-1.09,-0.04,-0.59,-1.11,1.03,
0.678,-0.07,-0.86,-0.12,-0.59,-1.11,1.03,
0.678,-0.07,-0.86,-0.12,-0.52,-1.20,1.02,
0.68,-0.07,-0.86,-0.12,-0.46,-1.29,1.01,
0.687,-0.07,-0.86,-0.12,-0.41,-1.37,1.01,
0.687,-0.16,-0.66,-0.24,-0.41,-1.37,1.01,
0.688,-0.16,-0.66,-0.24,-0.36,-1.44,1.01,
0.688,-0.16,-0.66,-0.24,-0.31,-1.50,1.00,
0.688,-0.21,-0.54,-0.41,-0.31,-1.50,1.00,
0.691,-0.21,-0.54,-0.41,-0.27,-1.55,1.00,
0.692,-0.21,-0.54,-0.41,-0.24,-1.60,0.99,
0.692,-0.25,-0.47,-0.55,-0.24,-1.60,0.99,
0.694,-0.25,-0.47,-0.55,-0.21,-1.65,0.98,
0.696,-0.23,-0.49,-0.62,-0.21,-1.65,0.98,
0.696,-0.23,-0.49,-0.62,-0.18,-1.68,0.98,
0.699,-0.23,-0.49,-0.62,-0.16,-1.72,0.97,
0.702,-0.23,-0.49,-0.62,-0.15,-1.74,0.96,
0.702,-0.16,-0.55,-0.64,-0.15,-1.74,0.96,
0.704,-0.16,-0.55,-0.64,-0.14,-1.77,0.95,
0.707,-0.05,-0.63,-0.67,-0.14,-1.77,0.95,
0.707,-0.05,-0.63,-0.67,-0.13,-1.79,0.94,
0.709,-0.05,-0.63,-0.67,-0.14,-1.80,0.93,
0.711,0.08,-0.68,-0.73,-0.14,-1.80,0.93,
0.711,0.08,-0.68,-0.73,-0.14,-1.81,0.92,
0.713,0.08,-0.68,-0.73,-0.15,-1.82,0.92,
0.716,0.08,-0.68,-0.73,-0.17,-1.82,0.91,
0.716,0.25,-0.73,-0.74,-0.17,-1.82,0.91,
0.719,0.25,-0.73,-0.74,-0.19,-1.82,0.91,
0.721,0.38,-0.73,-0.74,-0.19,-1.82,0.91,
0.721,0.38,-0.73,-0.74,-0.21,-1.82,0.90,
0.724,0.38,-0.73,-0.74,-0.24,-1.81,0.90,
0.725,0.38,-0.73,-0.74,-0.26,-1.81,0.89,
0.726,0.49,-0.78,-0.76,-0.26,-1.81,0.89,
0.728,0.49,-0.78,-0.76,-0.30,-1.80,0.89,
0.731,0.59,-0.87,-0.76,-0.30,-1.80,0.89,
0.731,0.59,-0.87,-0.76,-0.33,-1.78,0.88,
0.733,0.59,-0.87,-0.76,-0.37,-1.76,0.88,
0.735,0.63,-0.97,-0.81,-0.37,-1.76,0.88,
0.735,0.63,-0.97,-0.81,-0.40,-1.74,0.87,
0.738,0.63,-0.97,-0.81,-0.44,-1.71,0.87,
0.741,0.63,-0.97,-0.81,-0.47,-1.68,0.86,
0.741,0.63,-1.00,-0.82,-0.47,-1.68,0.86,
0.743,0.63,-1.00,-0.82,-0.51,-1.65,0.86,
0.745,0.57,-1.02,-0.85,-0.51,-1.65,0.86,
0.746,0.57,-1.02,-0.85,-0.54,-1.61,0.85,
0.749,0.57,-1.02,-0.85,-0.57,-1.57,0.84,
0.75,0.51,-1.00,-0.83,-0.57,-1.57,0.84,
0.751,0.51,-1.00,-0.83,-0.59,-1.53,0.84,
0.753,0.51,-1.00,-0.83,-0.62,-1.50,0.83,
0.755,0.52,-0.94,-0.77,-0.62,-1.50,0.83,
0.755,0.52,-0.94,-0.77,-0.64,-1.46,0.83,
0.757,0.52,-0.94,-0.77,-0.67,-1.43,0.83,
0.76,0.50,-0.84,-0.64,-0.67,-1.43,0.83,
0.76,0.50,-0.84,-0.64,-0.69,-1.39,0.82,
0.762,0.50,-0.84,-0.64,-0.70,-1.36,0.82,
0.772,0.50,-0.84,-0.64,-0.72,-1.32,0.81,
0.773,0.55,-0.73,-0.49,-0.72,-1.32,0.81,
0.773,0.55,-0.73,-0.49,-0.73,-1.29,0.80,
0.774,0.59,-0.69,-0.34,-0.73,-1.29,0.80,
0.774,0.59,-0.69,-0.34,-0.75,-1.26,0.79,
0.774,0.59,-0.69,-0.34,-0.76,-1.23,0.78,
0.775,0.59,-0.69,-0.34,-0.77,-1.20,0.77,
0.775,0.62,-0.71,-0.18,-0.77,-1.20,0.77,
0.776,0.62,-0.71,-0.18,-0.78,-1.18,0.76,
0.779,0.58,-0.76,-0.03,-0.78,-1.18,0.76,
0.78,0.58,-0.76,-0.03,-0.80,-1.16,0.75,
0.782,0.58,-0.76,-0.03,-0.80,-1.14,0.74,
0.789,0.58,-0.76,-0.03,-0.81,-1.13,0.73,
0.791,0.53,-0.83,0.08,-0.81,-1.13,0.73,
0.791,0.53,-0.83,0.08,-0.82,-1.12,0.73,
0.791,0.49,-0.85,0.18,-0.82,-1.12,0.73,
0.791,0.49,-0.85,0.18,-0.83,-1.11,0.72,
0.791,0.49,-0.85,0.18,-0.84,-1.12,0.72,
0.794,0.51,-0.78,0.31,-0.84,-1.12,0.72,
0.794,0.51,-0.78,0.31,-0.86,-1.12,0.71,
0.796,0.51,-0.78,0.31,-0.87,-1.13,0.70,
0.799,0.51,-0.78,0.31,-0.89,-1.15,0.69,
0.799,0.56,-0.70,0.53,-0.89,-1.15,0.69,
0.801,0.56,-0.70,0.53,-0.91,-1.17,0.68,
0.804,0.56,-0.70,0.53,-0.93,-1.20,0.67,
0.804,0.62,-0.63,0.83,-0.93,-1.20,0.67,
0.806,0.62,-0.63,0.83,-0.95,-1.23,0.65,
0.808,0.68,-0.61,1.16,-0.95,-1.23,0.65,
0.809,0.68,-0.61,1.16,-0.97,-1.26,0.63,
0.811,0.68,-0.61,1.16,-0.99,-1.30,0.61,
0.813,0.72,-0.66,1.37,-0.99,-1.30,0.61,
0.816,0.72,-0.66,1.37,-1.02,-1.33,0.59,
0.816,0.72,-0.66,1.37,-1.04,-1.35,0.58,
0.818,0.72,-0.74,1.48,-1.04,-1.35,0.58,
0.818,0.72,-0.74,1.48,-1.05,-1.38,0.56,
0.82,0.72,-0.74,1.48,-1.07,-1.40,0.54,
0.824,0.72,-0.74,1.48,-1.08,-1.42,0.53,
0.824,0.71,-0.82,1.55,-1.08,-1.42,0.53,
0.825,0.71,-0.82,1.55,-1.09,-1.43,0.51,
0.828,0.71,-0.82,1.55,-1.09,-1.44,0.50,
0.828,0.71,-0.88,1.62,-1.09,-1.44,0.50,
0.83,0.71,-0.88,1.62,-1.09,-1.44,0.49,
0.832,0.66,-0.92,1.70,-1.09,-1.44,0.49,
0.833,0.66,-0.92,1.70,-1.09,-1.44,0.49,
0.835,0.66,-0.92,1.70,-1.09,-1.44,0.48,
0.838,0.66,-0.92,1.70,-1.08,-1.44,0.48,
0.838,0.56,-0.91,1.78,-1.08,-1.44,0.48,
0.84,0.56,-0.91,1.78,-1.06,-1.43,0.48,
0.842,0.46,-0.89,1.90,-1.06,-1.43,0.48,
0.843,0.46,-0.89,1.90,-1.05,-1.42,0.49,
0.846,0.46,-0.89,1.90,-1.02,-1.41,0.49,
0.847,0.37,-0.80,2.00,-1.02,-1.41,0.49,
0.848,0.37,-0.80,2.00,-1.00,-1.40,0.50,
0.849,0.37,-0.80,2.00,-0.97,-1.38,0.51,
0.852,0.25,-0.73,2.03,-0.97,-1.38,0.51,
0.852,0.25,-0.73,2.03,-0.95,-1.36,0.52,
0.854,0.25,-0.73,2.03,-0.92,-1.33,0.53,
0.861,0.25,-0.73,2.03,-0.88,-1.31,0.54,
0.861,0.14,-0.66,1.99,-0.88,-1.31,0.54,
0.862,0.14,-0.66,1.99,-0.85,-1.28,0.55,
0.862,0.08,-0.64,1.89,-0.85,-1.28,0.55,
0.862,0.08,-0.64,1.89,-0.81,-1.25,0.57,
0.865,0.08,-0.64,1.89,-0.77,-1.22,0.58,
0.871,-0.00,-0.65,1.76,-0.77,-1.22,0.58,
0.872,-0.00,-0.65,1.76,-0.73,-1.19,0.60,
0.872,-0.00,-0.65,1.76,-0.69,-1.15,0.61,
0.872,-0.00,-0.65,1.76,-0.65,-1.12,0.63,
0.872,-0.08,-0.74,1.63,-0.65,-1.12,0.63,
0.874,-0.08,-0.74,1.63,-0.60,-1.10,0.64,
0.876,-0.17,-0.80,1.52,-0.60,-1.10,0.64,
0.876,-0.17,-0.80,1.52,-0.56,-1.08,0.66,
0.878,-0.17,-0.80,1.52,-0.52,-1.05,0.67,
0.881,-0.29,-0.80,1.36,-0.52,-1.05,0.67,
0.881,-0.29,-0.80,1.36,-0.47,-1.03,0.69,
0.883,-0.29,-0.80,1.36,-0.43,-1.02,0.71,
0.886,-0.40,-0.77,1.17,-0.43,-1.02,0.71,
0.886,-0.40,-0.77,1.17,-0.39,-1.01,0.72,
0.888,-0.40,-0.77,1.17,-0.35,-1.01,0.74,
0.891,-0.40,-0.77,1.17,-0.31,-1.01,0.76,
0.891,-0.49,-0.69,0.98,-0.31,-1.01,0.76,
0.894,-0.49,-0.69,0.98,-0.28,-1.01,0.79,
0.896,-0.49,-0.69,0.98,-0.25,-1.02,0.81,
0.896,-0.56,-0.57,0.85,-0.25,-1.02,0.81,
0.899,-0.56,-0.57,0.85,-0.22,-1.04,0.83,
0.9,-0.53,-0.41,0.75,-0.22,-1.04,0.83,
0.9,-0.53,-0.41,0.75,-0.20,-1.06,0.86,
0.903,-0.53,-0.41,0.75,-0.19,-1.09,0.87,
0.906,-0.53,-0.41,0.75,-0.19,-1.12,0.89,
0.906,-0.45,-0.22,0.70,-0.19,-1.12,0.89,
0.907,-0.45,-0.22,0.70,-0.19,-1.15,0.91,
0.91,-0.25,-0.08,0.70,-0.19,-1.15,0.91,
0.91,-0.25,-0.08,0.70,-0.20,-1.19,0.91,
0.912,-0.25,-0.08,0.70,-0.21,-1.23,0.92,
0.915,-0.25,-0.08,0.70,-0.24,-1.27,0.91,
0.916,0.02,0.03,0.71,-0.24,-1.27,0.91,
0.917,0.02,0.03,0.71,-0.26,-1.32,0.90,
0.92,0.02,0.03,0.71,-0.28,-1.37,0.87,
0.92,0.37,0.01,0.75,-0.28,-1.37,0.87,
0.922,0.37,0.01,0.75,-0.31,-1.43,0.85,
0.925,0.73,-0.12,0.79,-0.31,-1.43,0.85,
0.925,0.73,-0.12,0.79,-0.34,-1.49,0.81,
0.927,0.73,-0.12,0.79,-0.37,-1.55,0.77,
0.929,0.73,-0.12,0.79,-0.40,-1.61,0.73,
0.93,1.03,-0.31,0.84,-0.40,-1.61,0.73,
0.932,1.03,-0.31,0.84,-0.43,-1.67,0.68,
0.934,1.21,-0.55,0.92,-0.43,-1.67,0.68,
0.935,1.21,-0.55,0.92,-0.46,-1.72,0.63,
0.937,1.21,-0.55,0.92,-0.48,-1.77,0.57,
0.94,1.21,-0.55,0.92,-0.51,-1.82,0.53,
0.941,1.30,-0.73,1.00,-0.51,-1.82,0.53,
0.942,1.30,-0.73,1.00,-0.52,-1.87,0.48,
0.944,1.30,-0.73,1.00,-0.54,-1.90,0.44,
0.944,1.28,-0.80,1.08,-0.54,-1.90,0.44,
0.947,1.28,-0.80,1.08,-0.55,-1.94,0.40,
0.949,1.28,-0.80,1.08,-0.55,-1.97,0.38,
0.95,1.14,-0.80,1.20,-0.55,-1.97,0.38,
0.951,1.14,-0.80,1.20,-0.56,-1.99,0.36,
0.953,1.14,-0.80,1.20,-0.55,-2.01,0.34,
0.954,0.93,-0.74,1.32,-0.55,-2.01,0.34,
0.96,0.93,-0.74,1.32,-0.54,-2.02,0.34,
0.961,0.70,-0.64,1.39,-0.54,-2.02,0.34,
0.961,0.70,-0.64,1.39,-0.53,-2.03,0.34,
0.961,0.70,-0.64,1.39,-0.51,-2.03,0.34,
0.964,0.48,-0.51,1.42,-0.51,-2.03,0.34,
0.964,0.48,-0.51,1.42,-0.48,-2.02,0.35,
0.976,0.48,-0.51,1.42,-0.46,-2.00,0.37,
0.976,0.48,-0.51,1.42,-0.43,-1.97,0.38,
0.976,0.33,-0.40,1.44,-0.43,-1.97,0.38,
0.977,0.33,-0.40,1.44,-0.40,-1.94,0.40,
0.977,0.28,-0.31,1.37,-0.40,-1.94,0.40,
0.977,0.28,-0.31,1.37,-0.38,-1.90,0.42,
0.977,0.28,-0.31,1.37,-0.35,-1.84,0.44,
0.978,0.28,-0.31,1.37,-0.33,-1.78,0.46,
0.98,0.23,-0.27,1.25,-0.33,-1.78,0.46,
0.98,0.23,-0.27,1.25,-0.31,-1.72,0.48,
0.982,0.22,-0.28,1.14,-0.31,-1.72,0.48,
0.983,0.22,-0.28,1.14,-0.29,-1.66,0.50,
0.985,0.22,-0.28,1.14,-0.28,-1.59,0.52,
0.987,0.22,-0.32,1.05,-0.28,-1.59,0.52,
0.987,0.22,-0.32,1.05,-0.27,-1.54,0.55,
0.99,0.22,-0.32,1.05,-0.26,-1.49,0.57,
0.992,0.22,-0.32,1.05,-0.26,-1.45,0.59,
0.993,0.27,-0.34,1.09,-0.26,-1.45,0.59,
0.995,0.27,-0.34,1.09,-0.26,-1.42,0.61,
0.997,0.27,-0.34,1.09,-0.26,-1.41,0.64,
0.998,0.37,-0.35,1.19,-0.26,-1.41,0.64,
1.0,0.37,-0.35,1.19,-0.27,-1.41,0.66,
1.002,0.37,-0.35,1.19,-0.29,-1.42,0.69,
1.002,0.47,-0.28,1.41,-0.29,-1.42,0.69,
1.004,0.47,-0.28,1.41,-0.30,-1.43,0.71,
1.007,0.47,-0.28,1.41,-0.32,-1.45,0.72,
1.007,0.56,-0.22,1.63,-0.32,-1.45,0.72,
1.009,0.56,-0.22,1.63,-0.33,-1.48,0.74,
1.012,0.66,-0.17,1.81,-0.33,-1.48,0.74,
1.012,0.66,-0.17,1.81,-0.35,-1.51,0.75,
1.015,0.66,-0.17,1.81,-0.37,-1.54,0.75,
1.017,0.66,-0.17,1.81,-0.39,-1.57,0.75,
1.018,0.78,-0.18,1.92,-0.39,-1.57,0.75,
1.019,0.78,-0.18,1.92,-0.40,-1.61,0.75,
1.021,0.78,-0.18,1.92,-0.41,-1.65,0.74,
1.022,0.98,-0.16,2.05,-0.41,-1.65,0.74,
1.024,0.98,-0.16,2.05,-0.42,-1.70,0.74,
1.026,1.28,-0.18,2.28,-0.42,-1.70,0.74,
1.027,1.28,-0.18,2.28,-0.42,-1.76,0.72,
1.028,1.28,-0.18,2.28,-0.42,-1.82,0.70,
1.031,1.48,-0.23,2.60,-0.42,-1.82,0.70,
1.031,1.48,-0.23,2.60,-0.41,-1.89,0.68,
1.033,1.48,-0.23,2.60,-0.39,-1.96,0.66,
1.036,1.48,-0.23,2.60,-0.37,-2.03,0.64,
1.036,1.56,-0.36,2.94,-0.37,-2.03,0.64,
1.038,1.56,-0.36,2.94,-0.34,-2.11,0.61,
1.041,1.56,-0.36,2.94,-0.31,-2.19,0.59,
1.042,1.54,-0.48,3.27,-0.31,-2.19,0.59,
1.043,1.54,-0.48,3.27,-0.26,-2.27,0.58,
1.046,1.36,-0.54,3.54,-0.26,-2.27,0.58,
1.046,1.36,-0.54,3.54,-0.22,-2.36,0.56,
1.048,1.36,-0.54,3.54,-0.16,-2.44,0.55,
1.05,1.12,-0.60,3.74,-0.16,-2.44,0.55,
1.051,1.12,-0.60,3.74,-0.11,-2.53,0.55,
1.053,1.12,-0.60,3.74,-0.04,-2.61,0.54,
1.055,0.79,-0.61,3.81,-0.04,-2.61,0.54,
1.056,0.79,-0.61,3.81,0.03,-2.69,0.55,
1.058,0.79,-0.61,3.81,0.10,-2.77,0.56,
1.06,0.14,-0.77,3.78,0.10,-2.77,0.56,
1.06,0.14,-0.77,3.78,0.18,-2.86,0.58,
1.062,0.14,-0.77,3.78,0.26,-2.94,0.60,
1.069,0.14,-0.77,3.78,0.35,-3.03,0.64,
1.069,-0.51,-0.76,3.80,0.35,-3.03,0.64,
1.07,-0.51,-0.76,3.80,0.44,-3.12,0.68,
1.07,-0.94,-0.53,3.90,0.44,-3.12,0.68,
1.07,-0.94,-0.53,3.90,0.54,-3.23,0.73,
1.081,-0.94,-0.53,3.90,0.65,-3.33,0.78,
1.082,-0.94,-0.53,3.90,0.76,-3.45,0.83,
1.082,-1.07,-0.37,4.15,0.76,-3.45,0.83,
1.082,-1.07,-0.37,4.15,0.87,-3.56,0.88,
1.082,-1.07,-0.37,4.15,0.98,-3.67,0.94,
1.082,-1.09,-0.40,4.31,0.98,-3.67,0.94,
1.083,-1.09,-0.40,4.31,1.10,-3.77,1.00,
1.085,-1.21,-0.53,4.29,1.10,-3.77,1.00,
1.085,-1.21,-0.53,4.29,1.22,-3.88,1.05,
1.087,-1.21,-0.53,4.29,1.34,-3.97,1.11,
1.09,-1.21,-0.53,4.29,1.46,-4.06,1.16,
1.09,-1.41,-0.73,4.09,1.46,-4.06,1.16,
1.091,-1.41,-0.73,4.09,1.59,-4.14,1.21,
1.094,-1.41,-0.73,4.09,1.71,-4.22,1.26,
1.095,-1.62,-0.94,3.87,1.71,-4.22,1.26,
1.097,-1.62,-0.94,3.87,1.84,-4.30,1.31,
1.099,-1.62,-0.94,3.87,1.97,-4.37,1.35,
1.1,-1.78,-1.07,3.72,1.97,-4.37,1.35,
1.101,-1.78,-1.07,3.72,2.09,-4.44,1.39,
1.104,-1.81,-1.14,3.55,2.09,-4.44,1.39,
1.104,-1.81,-1.14,3.55,2.21,-4.50,1.42,
1.107,-1.81,-1.14,3.55,2.34,-4.55,1.44,
1.11,-1.81,-1.14,3.55,2.45,-4.59,1.47,
1.111,-1.77,-1.18,3.23,2.45,-4.59,1.47,
1.111,-1.77,-1.18,3.23,2.57,-4.61,1.48,
1.113,-1.77,-1.18,3.23,2.67,-4.62,1.50,
1.114,-1.72,-1.22,2.71,2.67,-4.62,1.50,
1.116,-1.72,-1.22,2.71,2.77,-4.62,1.51,
1.119,-1.64,-1.22,2.04,2.77,-4.62,1.51,
1.119,-1.64,-1.22,2.04,2.85,-4.61,1.51,
1.121,-1.64,-1.22,2.04,2.93,-4.59,1.52,
1.124,-1.50,-1.23,1.39,2.93,-4.59,1.52,
1.125,-1.50,-1.23,1.39,3.00,-4.56,1.52,
1.126,-1.50,-1.23,1.39,3.05,-4.52,1.52,
1.128,-1.50,-1.23,1.39,3.10,-4.48,1.52,
1.128,-1.30,-1.12,0.84,3.10,-4.48,1.52,
1.131,-1.30,-1.12,0.84,3.13,-4.43,1.52,
1.133,-1.08,-0.92,0.38,3.13,-4.43,1.52,
1.134,-1.08,-0.92,0.38,3.15,-4.36,1.52,
1.135,-1.08,-0.92,0.38,3.16,-4.28,1.52,
1.138,-1.08,-0.92,0.38,3.15,-4.18,1.52,
1.139,-0.92,-0.64,-0.13,3.15,-4.18,1.52,
1.14,-0.92,-0.64,-0.13,3.12,-4.07,1.52,
1.142,-0.80,-0.35,-0.87,3.12,-4.07,1.52,
1.143,-0.80,-0.35,-0.87,3.08,-3.94,1.53,
1.145,-0.80,-0.35,-0.87,3.02,-3.80,1.54,
1.147,-0.80,-0.35,-0.87,2.94,-3.65,1.55,
1.149,-0.75,-0.10,-1.69,2.94,-3.65,1.55,
1.15,-0.75,-0.10,-1.69,2.84,-3.48,1.56,
1.152,-0.75,-0.10,-1.69,2.73,-3.30,1.57,
1.152,-0.65,0.05,-2.52,2.73,-3.30,1.57,
1.154,-0.65,0.05,-2.52,2.60,-3.13,1.59,
1.157,-0.48,0.12,-3.23,2.60,-3.13,1.59,
1.158,-0.48,0.12,-3.23,2.46,-2.94,1.60,
1.159,-0.48,0.12,-3.23,2.30,-2.75,1.62,
1.162,-0.48,0.12,-3.23,2.13,-2.55,1.63,
1.162,-0.26,0.17,-3.79,2.13,-2.55,1.63,
1.169,-0.26,0.17,-3.79,1.95,-2.36,1.64,
1.169,-0.26,0.17,-3.79,1.77,-2.16,1.65,
1.17,-0.03,0.21,-4.28,1.77,-2.16,1.65,
1.17,-0.03,0.21,-4.28,1.57,-1.96,1.66,
1.172,0.17,0.18,-4.69,1.57,-1.96,1.66,
1.172,0.17,0.18,-4.69,1.37,-1.76,1.66,
1.181,0.17,0.18,-4.69,1.17,-1.56,1.66,
1.181,0.29,0.16,-4.94,1.17,-1.56,1.66,
1.181,0.29,0.16,-4.94,0.96,-1.36,1.66,
1.182,0.29,0.16,-4.94,0.75,-1.16,1.66,
1.182,0.29,0.16,-4.94,0.54,-0.97,1.66,
1.182,0.40,0.13,-5.11,0.54,-0.97,1.66,
1.183,0.40,0.13,-5.11,0.34,-0.79,1.66,
1.186,0.49,0.04,-5.11,0.34,-0.79,1.66,
1.186,0.49,0.04,-5.11,0.15,-0.60,1.66,
1.189,0.49,0.04,-5.11,-0.04,-0.44,1.65,
1.191,0.49,-0.03,-4.97,-0.04,-0.44,1.65,
1.191,0.49,-0.03,-4.97,-0.23,-0.28,1.65,
1.194,0.49,-0.03,-4.97,-0.40,-0.13,1.64,
1.196,0.49,-0.10,-4.68,-0.40,-0.13,1.64,
1.196,0.49,-0.10,-4.68,-0.56,0.00,1.64,
1.198,0.49,-0.10,-4.68,-0.72,0.12,1.63,
1.201,0.44,-0.22,-4.21,-0.72,0.12,1.63,
1.201,0.44,-0.22,-4.21,-0.86,0.22,1.62,
1.203,0.44,-0.22,-4.21,-0.98,0.31,1.61,
1.207,0.44,-0.22,-4.21,-1.10,0.38,1.60,
1.207,0.39,-0.31,-3.56,-1.10,0.38,1.60,
1.208,0.39,-0.31,-3.56,-1.19,0.43,1.59,
1.21,0.29,-0.40,-2.80,-1.19,0.43,1.59,
1.211,0.29,-0.40,-2.80,-1.27,0.46,1.58,
1.215,0.29,-0.40,-2.80,-1.34,0.48,1.57,
1.215,0.29,-0.40,-2.80,-1.39,0.48,1.56,
1.216,0.16,-0.48,-1.96,-1.39,0.48,1.56,
1.217,0.16,-0.48,-1.96,-1.43,0.46,1.55,
1.22,0.04,-0.62,-1.13,-1.43,0.46,1.55,
1.22,0.04,-0.62,-1.13,-1.45,0.42,1.54,
1.223,0.04,-0.62,-1.13,-1.45,0.36,1.54,
1.225,-0.05,-0.72,-0.26,-1.45,0.36,1.54,
1.225,-0.05,-0.72,-0.26,-1.44,0.28,1.53,
1.227,-0.05,-0.72,-0.26,-1.42,0.18,1.53,
1.23,-0.14,-0.80,0.61,-1.42,0.18,1.53,
1.23,-0.14,-0.80,0.61,-1.37,0.07,1.52,
1.232,-0.14,-0.80,0.61,-1.32,-0.05,1.52,
1.234,-0.14,-0.80,0.61,-1.25,-0.20,1.53,
1.235,-0.18,-0.83,1.40,-1.25,-0.20,1.53,
1.237,-0.18,-0.83,1.40,-1.17,-0.36,1.54,
1.24,-0.18,-0.83,1.40,-1.09,-0.52,1.56,
1.24,-0.29,-0.75,2.17,-1.09,-0.52,1.56,
1.242,-0.29,-0.75,2.17,-0.99,-0.69,1.58,
1.244,-0.29,-0.75,2.17,-0.89,-0.87,1.60,
1.245,-0.36,-0.60,2.73,-0.89,-0.87,1.60,
1.247,-0.36,-0.60,2.73,-0.77,-1.04,1.62,
1.249,-0.36,-0.60,2.73,-0.65,-1.21,1.64,
1.25,-0.38,-0.62,3.06,-0.65,-1.21,1.64,
1.251,-0.38,-0.62,3.06,-0.51,-1.38,1.65,
1.254,-0.37,-0.65,3.25,-0.51,-1.38,1.65,
1.254,-0.37,-0.65,3.25,-0.38,-1.55,1.66,
1.257,-0.37,-0.65,3.25,-0.24,-1.72,1.68,
1.259,-0.34,-0.68,3.35,-0.24,-1.72,1.68,
1.259,-0.34,-0.68,3.35,-0.09,-1.88,1.68,
1.261,-0.34,-0.68,3.35,0.06,-2.03,1.69,
1.265,-0.34,-0.68,3.35,0.20,-2.17,1.69,
1.265,-0.27,-0.64,3.33,0.20,-2.17,1.69,
1.266,-0.27,-0.64,3.33,0.36,-2.29,1.69,
1.268,-0.11,-0.67,3.12,0.36,-2.29,1.69,
1.27,-0.11,-0.67,3.12,0.51,-2.41,1.69,
1.271,-0.11,-0.67,3.12,0.66,-2.51,1.69,
1.274,-0.11,-0.67,3.12,0.81,-2.60,1.68,
1.275,0.06,-0.72,2.88,0.81,-2.60,1.68,
1.279,0.06,-0.72,2.88,0.96,-2.68,1.67,
1.279,0.24,-0.79,2.56,0.96,-2.68,1.67,
1.279,0.24,-0.79,2.56,1.10,-2.75,1.66,
1.282,0.24,-0.79,2.56,1.24,-2.82,1.65,
1.283,0.24,-0.79,2.56,1.37,-2.87,1.64,
1.283,0.40,-0.90,2.28,1.37,-2.87,1.64,
1.285,0.40,-0.90,2.28,1.50,-2.92,1.63,
1.287,0.57,-0.96,2.04,1.50,-2.92,1.63,
1.288,0.57,-0.96,2.04,1.61,-2.95,1.62,
1.29,0.57,-0.96,2.04,1.72,-2.98,1.61,
1.292,0.69,-1.01,1.73,1.72,-2.98,1.61,
1.293,0.69,-1.01,1.73,1.82,-2.99,1.60,
1.295,0.69,-1.01,1.73,1.90,-2.99,1.59,
1.297,0.69,-1.01,1.73,1.97,-2.99,1.57,
1.298,0.78,-1.10,1.32,1.97,-2.99,1.57,
1.3,0.78,-1.10,1.32,2.03,-2.98,1.56,
1.303,0.90,-1.25,0.97,2.03,-2.98,1.56,
1.304,0.90,-1.25,0.97,2.07,-2.98,1.55,
1.305,0.90,-1.25,0.97,2.11,-2.98,1.55,
1.307,1.01,-1.38,0.86,2.11,-2.98,1.55,
1.308,1.01,-1.38,0.86,2.14,-2.98,1.55,
1.309,1.01,-1.38,0.86,2.15,-2.99,1.56,
1.312,1.01,-1.38,0.86,2.16,-3.01,1.57,
1.312,1.08,-1.52,0.90,2.16,-3.01,1.57,
1.315,1.08,-1.52,0.90,2.16,-3.04,1.58,
1.317,1.02,-1.61,1.06,2.16,-3.04,1.58,
1.317,1.02,-1.61,1.06,2.15,-3.08,1.60,
1.32,1.02,-1.61,1.06,2.14,-3.12,1.63,
1.322,1.02,-1.61,1.06,2.12,-3.17,1.65,
1.322,0.95,-1.74,1.26,2.12,-3.17,1.65,
1.324,0.95,-1.74,1.26,2.11,-3.22,1.67,
1.327,0.90,-1.89,1.29,2.11,-3.22,1.67,
1.327,0.90,-1.89,1.29,2.09,-3.27,1.70,
1.329,0.90,-1.89,1.29,2.08,-3.31,1.73,
1.331,0.90,-1.89,1.29,2.08,-3.35,1.76,
1.332,0.86,-1.98,1.28,2.08,-3.35,1.76,
1.334,0.86,-1.98,1.28,2.07,-3.37,1.79,
1.336,0.84,-1.95,1.23,2.07,-3.37,1.79,
1.337,0.84,-1.95,1.23,2.08,-3.39,1.82,
1.339,0.84,-1.95,1.23,2.09,-3.40,1.85,
1.342,0.84,-1.95,1.23,2.11,-3.40,1.89,
1.343,0.80,-1.83,1.13,2.11,-3.40,1.89,
1.344,0.80,-1.83,1.13,2.13,-3.38,1.92,
1.346,0.80,-1.83,1.13,2.16,-3.35,1.96,
1.347,0.76,-1.66,1.02,2.16,-3.35,1.96,
1.348,0.76,-1.66,1.02,2.19,-3.32,1.99,
1.351,0.76,-1.66,1.02,2.22,-3.28,2.03,
1.351,0.73,-1.50,0.89,2.22,-3.28,2.03,
1.353,0.73,-1.50,0.89,2.25,-3.23,2.06,
1.356,0.73,-1.50,0.89,2.28,-3.17,2.10,
1.357,0.74,-1.32,0.79,2.28,-3.17,2.10,
1.358,0.74,-1.32,0.79,2.31,-3.10,2.13,
1.361,0.74,-1.32,0.79,2.33,-3.03,2.16,
1.361,0.89,-1.11,0.65,2.33,-3.03,2.16,
1.363,0.89,-1.11,0.65,2.35,-2.94,2.18,
1.366,1.14,-0.88,0.44,2.35,-2.94,2.18,
1.366,1.14,-0.88,0.44,2.35,-2.85,2.21,
1.368,1.14,-0.88,0.44,2.34,-2.74,2.23,
1.37,1.45,-0.61,0.08,2.34,-2.74,2.23,
1.37,1.45,-0.61,0.08,2.32,-2.61,2.26,
1.376,1.45,-0.61,0.08,2.29,-2.48,2.28,
1.377,1.45,-0.61,0.08,2.24,-2.34,2.30,
1.377,1.79,-0.31,-0.42,2.24,-2.34,2.30,
1.379,1.79,-0.31,-0.42,2.17,-2.20,2.31,
1.387,1.79,-0.31,-0.42,2.09,-2.04,2.32,
1.387,2.12,-0.06,-0.99,2.09,-2.04,2.32,
1.388,2.12,-0.06,-0.99,2.00,-1.89,2.33,
1.388,2.42,0.09,-1.49,2.00,-1.89,2.33,
1.388,2.42,0.09,-1.49,1.89,-1.74,2.32,
1.388,2.42,0.09,-1.49,1.78,-1.58,2.31,
1.389,2.71,0.19,-1.98,1.78,-1.58,2.31,
1.39,2.71,0.19,-1.98,1.64,-1.42,2.29,
1.392,2.71,0.19,-1.98,1.50,-1.26,2.26,
1.394,3.00,0.22,-2.44,1.50,-1.26,2.26,
1.394,3.00,0.22,-2.44,1.35,-1.10,2.23,
1.398,3.00,0.22,-2.44,1.20,-0.94,2.18,
1.399,3.21,0.26,-2.84,1.20,-0.94,2.18,
1.4,3.21,0.26,-2.84,1.03,-0.77,2.14,
1.402,3.21,0.26,-2.84,0.87,-0.61,2.08,
1.404,3.21,0.26,-2.84,0.70,-0.46,2.03,
1.404,3.34,0.28,-3.12,0.70,-0.46,2.03,
1.406,3.34,0.28,-3.12,0.54,-0.31,1.96,
1.409,3.36,0.29,-3.23,0.54,-0.31,1.96,
1.409,3.36,0.29,-3.23,0.38,-0.17,1.90,
1.412,3.36,0.29,-3.23,0.23,-0.05,1.83,
1.415,3.36,0.29,-3.23,0.08,0.06,1.76,
1.416,3.30,0.25,-3.14,0.08,0.06,1.76,
1.417,3.30,0.25,-3.14,-0.05,0.16,1.69,
1.419,3.13,0.24,-2.75,-0.05,0.16,1.69,
1.419,3.13,0.24,-2.75,-0.16,0.24,1.63,
1.421,3.13,0.24,-2.75,-0.26,0.31,1.57,
1.424,3.13,0.24,-2.75,-0.35,0.36,1.51,
1.425,2.88,0.37,-2.16,-0.35,0.36,1.51,
1.426,2.88,0.37,-2.16,-0.41,0.40,1.46,
1.428,2.88,0.37,-2.16,-0.46,0.42,1.41,
1.429,2.58,0.54,-1.47,-0.46,0.42,1.41,
1.431,2.58,0.54,-1.47,-0.50,0.44,1.37,
1.433,2.58,0.54,-1.47,-0.52,0.43,1.33,
1.434,2.20,0.72,-0.81,-0.52,0.43,1.33,
1.436,2.20,0.72,-0.81,-0.53,0.41,1.30,
1.438,1.85,0.87,-0.21,-0.53,0.41,1.30,
1.439,1.85,0.87,-0.21,-0.53,0.38,1.27,
1.441,1.85,0.87,-0.21,-0.52,0.33,1.25,
1.443,1.50,0.85,0.31,-0.52,0.33,1.25,
1.444,1.50,0.85,0.31,-0.49,0.26,1.24,
1.446,1.50,0.85,0.31,-0.46,0.18,1.22,
1.448,1.23,0.69,0.67,-0.46,0.18,1.22,
1.448,1.23,0.69,0.67,-0.42,0.08,1.22,
1.45,1.23,0.69,0.67,-0.37,-0.02,1.22,
1.453,1.23,0.69,0.67,-0.31,-0.14,1.23,
1.454,0.94,0.66,1.05,-0.31,-0.14,1.23,
1.455,0.94,0.66,1.05,-0.25,-0.26,1.25,
1.457,0.94,0.66,1.05,-0.18,-0.38,1.26,
1.458,0.64,0.72,1.33,-0.18,-0.38,1.26,
1.46,0.64,0.72,1.33,-0.10,-0.49,1.28,
1.462,0.47,0.72,1.39,-0.10,-0.49,1.28,
1.462,0.47,0.72,1.39,-0.02,-0.59,1.30,
1.468,0.47,0.72,1.39,0.07,-0.70,1.31,
1.468,0.36,0.65,1.30,0.07,-0.70,1.31,
1.469,0.36,0.65,1.30,0.16,-0.79,1.32,
1.47,0.36,0.65,1.30,0.25,-0.89,1.34,
1.478,0.36,0.65,1.30,0.34,-0.98,1.34,
1.479,0.33,0.62,1.23,0.34,-0.98,1.34,
1.479,0.33,0.62,1.23,0.43,-1.08,1.35,
1.479,0.33,0.62,1.23,0.52,-1.16,1.36,
1.479,0.37,0.54,1.08,0.52,-1.16,1.36,
1.479,0.37,0.54,1.08,0.61,-1.23,1.36,
1.482,0.37,0.54,1.08,0.69,-1.30,1.36,
1.482,0.40,0.49,0.86,0.69,-1.30,1.36,
1.484,0.40,0.49,0.86,0.77,-1.36,1.36,
1.486,0.40,0.49,0.86,0.84,-1.41,1.35,
1.487,0.48,0.48,0.63,0.84,-1.41,1.35,
1.489,0.48,0.48,0.63,0.91,-1.46,1.35,
1.491,0.48,0.48,0.63,0.97,-1.52,1.34,
1.492,0.62,0.38,0.43,0.97,-1.52,1.34,
1.494,0.62,0.38,0.43,1.03,-1.56,1.33,
1.498,0.62,0.38,0.43,1.07,-1.60,1.31,
1.499,0.83,0.32,0.25,1.07,-1.60,1.31,
1.499,0.83,0.32,0.25,1.11,-1.63,1.30,
1.501,0.83,0.32,0.25,1.13,-1.66,1.29,
1.502,0.99,0.32,0.05,1.13,-1.66,1.29,
1.504,0.99,0.32,0.05,1.14,-1.68,1.28,
1.506,0.99,0.32,0.05,1.14,-1.68,1.27,
1.507,1.23,0.40,-0.18,1.14,-1.68,1.27,
1.509,1.23,0.40,-0.18,1.13,-1.68,1.26,
1.511,1.23,0.40,-0.18,1.11,-1.66,1.25,
1.511,1.44,0.53,-0.55,1.11,-1.66,1.25,
1.514,1.44,0.53,-0.55,1.08,-1.63,1.24,
1.515,1.69,0.69,-0.97,1.08,-1.63,1.24,
1.516,1.69,0.69,-0.97,1.03,-1.59,1.22,
1.518,1.69,0.69,-0.97,0.97,-1.53,1.21,
1.521,1.69,0.69,-0.97,0.90,-1.46,1.19,
1.521,2.00,0.81,-1.38,0.90,-1.46,1.19,
1.523,2.00,0.81,-1.38,0.82,-1.37,1.16,
1.525,2.00,0.81,-1.38,0.73,-1.27,1.14,
1.526,2.28,0.86,-1.85,0.73,-1.27,1.14,
1.528,2.28,0.86,-1.85,0.63,-1.16,1.12,
1.53,2.28,0.86,-1.85,0.51,-1.03,1.09,
1.531,2.55,0.86,-2.38,0.51,-1.03,1.09,
1.532,2.55,0.86,-2.38,0.38,-0.89,1.06,
1.535,2.77,0.83,-2.93,0.38,-0.89,1.06,
1.535,2.77,0.83,-2.93,0.24,-0.72,1.03,
1.537,2.77,0.83,-2.93,0.08,-0.54,0.99,
1.54,2.77,0.83,-2.93,-0.08,-0.35,0.96,
1.54,2.98,0.75,-3.64,-0.08,-0.35,0.96,
1.542,2.98,0.75,-3.64,-0.25,-0.14,0.92,
1.545,3.18,0.69,-4.21,-0.25,-0.14,0.92,
1.545,3.18,0.69,-4.21,-0.43,0.08,0.89,
1.547,3.18,0.69,-4.21,-0.60,0.30,0.86,
1.549,3.18,0.69,-4.21,-0.77,0.51,0.84,
1.55,3.27,0.62,-4.51,-0.77,0.51,0.84,
1.552,3.27,0.62,-4.51,-0.93,0.72,0.81,
1.555,3.27,0.56,-4.49,-0.93,0.72,0.81,
1.555,3.27,0.56,-4.49,-1.09,0.93,0.79,
1.557,3.27,0.56,-4.49,-1.24,1.13,0.77,
1.559,3.27,0.56,-4.49,-1.37,1.32,0.76,
1.559,3.16,0.47,-4.24,-1.37,1.32,0.76,
1.562,3.16,0.47,-4.24,-1.49,1.49,0.75,
1.568,3.16,0.47,-4.24,-1.60,1.64,0.74,
1.569,2.92,0.33,-3.77,-1.60,1.64,0.74,
1.569,2.92,0.33,-3.77,-1.70,1.76,0.72,
1.569,2.68,0.18,-3.10,-1.70,1.76,0.72,
1.57,2.68,0.18,-3.10,-1.78,1.85,0.72,
1.571,2.68,0.18,-3.10,-1.85,1.92,0.72,
1.581,2.68,0.18,-3.10,-1.90,1.96,0.71,
1.582,2.42,0.20,-2.18,-1.90,1.96,0.71,
1.582,2.42,0.20,-2.18,-1.94,1.99,0.71,
1.582,2.42,0.20,-2.18,-1.97,2.00,0.71,
1.582,2.11,0.30,-1.32,-1.97,2.00,0.71,
1.582,2.11,0.30,-1.32,-1.99,2.00,0.71,
1.584,1.80,0.42,-0.63,-1.99,2.00,0.71,
1.584,1.80,0.42,-0.63,-1.99,1.99,0.70,
1.586,1.80,0.42,-0.63,-1.99,1.97,0.70,
1.588,1.80,0.42,-0.63,-1.98,1.93,0.70,
1.589,1.55,0.53,-0.10,-1.98,1.93,0.70,
1.591,1.55,0.53,-0.10,-1.96,1.88,0.70,
1.593,1.55,0.53,-0.10,-1.93,1.81,0.70,
1.593,1.33,0.52,0.39,-1.93,1.81,0.70,
1.595,1.33,0.52,0.39,-1.90,1.74,0.71,
1.598,1.14,0.53,0.80,-1.90,1.74,0.71,
1.598,1.14,0.53,0.80,-1.86,1.66,0.72,
1.6,1.14,0.53,0.80,-1.81,1.57,0.73,
1.603,1.14,0.53,0.80,-1.76,1.47,0.74,
1.603,0.97,0.62,1.15,-1.76,1.47,0.74,
1.606,0.97,0.62,1.15,-1.70,1.37,0.75,
1.607,0.88,0.73,1.46,-1.70,1.37,0.75,
1.608,0.88,0.73,1.46,-1.64,1.26,0.76,
1.61,0.88,0.73,1.46,-1.58,1.15,0.78,
1.613,0.81,0.98,1.79,-1.58,1.15,0.78,
1.613,0.81,0.98,1.79,-1.52,1.05,0.80,
1.615,0.81,0.98,1.79,-1.45,0.96,0.81,
1.622,0.81,0.98,1.79,-1.37,0.88,0.82,
1.622,0.88,1.19,1.96,-1.37,0.88,0.82,
1.622,0.88,1.19,1.96,-1.30,0.82,0.82,
1.623,0.88,1.19,1.96,-1.23,0.77,0.82,
1.623,1.09,1.31,1.95,-1.23,0.77,0.82,
1.624,1.09,1.31,1.95,-1.16,0.74,0.80,
1.627,1.39,1.37,1.84,-1.16,0.74,0.80,
1.627,1.39,1.37,1.84,-1.10,0.73,0.79,
1.63,1.39,1.37,1.84,-1.03,0.73,0.76,
1.632,1.76,1.43,1.69,-1.03,0.73,0.76,
1.632,1.76,1.43,1.69,-0.98,0.76,0.74,
1.634,1.76,1.43,1.69,-0.93,0.80,0.71,
1.637,1.76,1.43,1.69,-0.90,0.85,0.67,
1.637,2.19,1.46,1.39,-0.90,0.85,0.67,
1.639,2.19,1.46,1.39,-0.87,0.93,0.63,
1.641,2.65,1.41,1.01,-0.87,0.93,0.63,
1.642,2.65,1.41,1.01,-0.86,1.02,0.59,
1.644,2.65,1.41,1.01,-0.86,1.12,0.54,
1.647,2.65,1.41,1.01,-0.88,1.26,0.49,
1.648,3.09,1.33,0.42,-0.88,1.26,0.49,
1.649,3.09,1.33,0.42,-0.92,1.42,0.43,
1.651,3.53,1.15,-0.42,-0.92,1.42,0.43,
1.652,3.53,1.15,-0.42,-0.99,1.63,0.35,
1.654,3.53,1.15,-0.42,-1.10,1.88,0.28,
1.656,3.53,1.15,-0.42,-1.23,2.15,0.19,
1.657,3.95,0.85,-1.79,-1.23,2.15,0.19,
1.658,3.95,0.85,-1.79,-1.38,2.41,0.11,
1.661,3.95,0.85,-1.79,-1.53,2.64,0.02,
1.661,4.18,0.53,-3.09,-1.53,2.64,0.02,
1.668,4.18,0.53,-3.09,-1.68,2.85,-0.07,
1.669,4.06,0.11,-3.14,-1.68,2.85,-0.07,
1.669,4.06,0.11,-3.14,-1.81,3.06,-0.15,
1.669,4.06,0.11,-3.14,-1.94,3.26,-0.22,
1.672,4.06,0.11,-3.14,-2.06,3.45,-0.28,
1.672,3.65,-0.17,-3.18,-2.06,3.45,-0.28,
1.679,3.65,-0.17,-3.18,-2.17,3.62,-0.34,
1.679,3.65,-0.17,-3.18,-2.27,3.76,-0.38,
1.679,3.11,-0.31,-3.30,-2.27,3.76,-0.38,
1.679,3.11,-0.31,-3.30,-2.36,3.88,-0.41,
1.681,3.11,-0.31,-3.30,-2.44,3.97,-0.44,
1.681,2.46,-0.36,-3.05,-2.44,3.97,-0.44,
1.683,2.46,-0.36,-3.05,-2.50,4.04,-0.47,
1.685,1.64,-0.41,-2.56,-2.50,4.04,-0.47,
1.685,1.64,-0.41,-2.56,-2.55,4.07,-0.49,
1.687,1.64,-0.41,-2.56,-2.59,4.08,-0.50,
1.69,0.64,-0.39,-1.87,-2.59,4.08,-0.50,
1.69,0.64,-0.39,-1.87,-2.62,4.05,-0.50,
1.692,0.64,-0.39,-1.87,-2.62,3.99,-0.49,
1.695,0.64,-0.39,-1.87,-2.62,3.89,-0.46,
1.695,-0.36,-0.25,-1.03,-2.62,3.89,-0.46,
1.698,-0.36,-0.25,-1.03,-2.60,3.77,-0.43,
1.704,-0.36,-0.25,-1.03,-2.58,3.61,-0.38,
1.704,-1.25,0.03,-0.18,-2.58,3.61,-0.38,
1.705,-1.25,0.03,-0.18,-2.54,3.42,-0.32,
1.707,-1.25,0.03,-0.18,-2.50,3.20,-0.27,
1.708,-1.79,0.38,0.60,-2.50,3.20,-0.27,
1.708,-1.79,0.38,0.60,-2.45,2.97,-0.21,
1.709,-1.79,0.38,0.60,-2.39,2.73,-0.15,
1.71,-2.02,0.37,1.26,-2.39,2.73,-0.15,
1.711,-2.02,0.37,1.26,-2.32,2.47,-0.09,
1.714,-2.08,0.03,1.61,-2.32,2.47,-0.09,
1.714,-2.08,0.03,1.61,-2.24,2.20,-0.03,
1.716,-2.08,0.03,1.61,-2.16,1.92,0.03,
1.719,-2.10,-0.32,1.90,-2.16,1.92,0.03,
1.719,-2.10,-0.32,1.90,-2.07,1.63,0.08,
1.721,-2.10,-0.32,1.90,-1.97,1.33,0.13,
1.724,-2.10,-0.32,1.90,-1.87,1.02,0.18,
1.724,-2.17,-0.52,2.21,-1.87,1.02,0.18,
1.726,-2.17,-0.52,2.21,-1.75,0.72,0.23,
1.729,-2.25,-0.51,2.34,-1.75,0.72,0.23,
1.729,-2.25,-0.51,2.34,-1.64,0.43,0.28,
1.731,-2.25,-0.51,2.34,-1.51,0.15,0.31,
1.733,-2.27,-0.32,2.30,-1.51,0.15,0.31,
1.734,-2.27,-0.32,2.30,-1.37,-0.13,0.34,
1.736,-2.27,-0.32,2.30,-1.24,-0.38,0.37,
1.739,-2.27,-0.32,2.30,-1.10,-0.63,0.39,
1.739,-2.24,-0.04,2.19,-1.10,-0.63,0.39,
1.741,-2.24,-0.04,2.19,-0.96,-0.86,0.41,
1.743,-2.24,-0.04,2.19,-0.81,-1.07,0.41,
1.743,-2.09,0.23,2.07,-0.81,-1.07,0.41,
1.746,-2.09,0.23,2.07,-0.67,-1.26,0.41,
1.748,-2.09,0.23,2.07,-0.52,-1.43,0.40,
1.748,-1.91,0.43,1.97,-0.52,-1.43,0.40,
1.75,-1.91,0.43,1.97,-0.37,-1.59,0.39,
1.753,-1.91,0.43,1.97,-0.23,-1.73,0.36,
1.754,-1.72,0.51,1.90,-0.23,-1.73,0.36,
1.755,-1.72,0.51,1.90,-0.09,-1.85,0.33,
1.758,-1.72,0.51,1.90,0.05,-1.96,0.29,
1.758,-1.46,0.51,1.88,0.05,-1.96,0.29,
1.76,-1.46,0.51,1.88,0.18,-2.05,0.25,
1.763,-1.09,0.40,1.90,0.18,-2.05,0.25,
1.763,-1.09,0.40,1.90,0.30,-2.14,0.21,
1.766,-1.09,0.40,1.90,0.41,-2.21,0.16,
1.767,-0.61,0.28,1.91,0.41,-2.21,0.16,
1.767,-0.61,0.28,1.91,0.52,-2.27,0.10,
1.77,-0.61,0.28,1.91,0.61,-2.32,0.05,
1.776,-0.61,0.28,1.91,0.69,-2.36,-0.01,
1.777,-0.12,0.17,1.83,0.69,-2.36,-0.01,
1.777,-0.12,0.17,1.83,0.76,-2.38,-0.06,
1.778,-0.12,0.17,1.83,0.82,-2.38,-0.12,
1.778,0.36,0.12,1.66,0.82,-2.38,-0.12,
1.781,0.36,0.12,1.66,0.86,-2.37,-0.17,
1.784,0.36,0.12,1.66,0.90,-2.35,-0.22,
1.784,0.79,0.18,1.29,0.90,-2.35,-0.22,
1.784,0.79,0.18,1.29,0.92,-2.32,-0.27,
1.787,0.79,0.18,1.29,0.93,-2.27,-0.32,
1.787,1.10,0.26,1.05,0.93,-2.27,-0.32,
1.789,1.10,0.26,1.05,0.93,-2.21,-0.36,
1.792,1.10,0.26,1.05,0.91,-2.13,-0.39,
1.792,1.31,0.37,0.67,0.91,-2.13,-0.39,
1.794,1.31,0.37,0.67,0.89,-2.04,-0.43,
1.797,1.31,0.37,0.67,0.85,-1.93,-0.45,
1.797,1.42,0.46,0.23,0.85,-1.93,-0.45,
1.799,1.42,0.46,0.23,0.80,-1.82,-0.48,
1.801,1.44,0.52,-0.17,0.80,-1.82,-0.48,
1.801,1.44,0.52,-0.17,0.74,-1.70,-0.50,
1.806,1.44,0.52,-0.17,0.67,-1.57,-0.51,
1.807,1.44,0.53,-0.58,0.67,-1.57,-0.51,
1.807,1.44,0.53,-0.58,0.59,-1.43,-0.52,
1.809,1.44,0.53,-0.58,0.50,-1.29,-0.53,
1.811,1.41,0.50,-0.94,0.50,-1.29,-0.53,
1.811,1.41,0.50,-0.94,0.39,-1.14,-0.53,
1.814,1.41,0.50,-0.94,0.29,-0.98,-0.53,
1.816,1.41,0.50,-0.94,0.18,-0.82,-0.53,
1.816,1.38,0.43,-1.28,0.18,-0.82,-0.53,
1.818,1.38,0.43,-1.28,0.06,-0.65,-0.52,
1.822,1.33,0.32,-1.58,0.06,-0.65,-0.52,
1.822,1.33,0.32,-1.58,-0.06,-0.48,-0.51,
1.823,1.33,0.32,-1.58,-0.18,-0.31,-0.50,
1.826,1.19,0.21,-1.80,-0.18,-0.31,-0.50,
1.826,1.19,0.21,-1.80,-0.30,-0.14,-0.48,
1.828,1.19,0.21,-1.80,-0.41,0.04,-0.46,
1.831,1.19,0.21,-1.80,-0.52,0.21,-0.44,
1.831,0.94,0.12,-1.96,-0.52,0.21,-0.44,
1.833,0.94,0.12,-1.96,-0.63,0.38,-0.41,
1.836,0.94,0.12,-1.96,-0.74,0.54,-0.38,
1.836,0.65,0.10,-2.09,-0.74,0.54,-0.38,
1.839,0.65,0.10,-2.09,-0.83,0.70,-0.34,
1.84,0.38,0.08,-2.14,-0.83,0.70,-0.34,
1.841,0.38,0.08,-2.14,-0.93,0.84,-0.30,
1.843,0.38,0.08,-2.14,-1.02,0.98,-0.26,
1.845,0.16,0.07,-2.04,-1.02,0.98,-0.26,
1.846,0.16,0.07,-2.04,-1.10,1.10,-0.22,
1.848,0.16,0.07,-2.04,-1.17,1.22,-0.18,
1.85,-0.04,0.05,-1.88,-1.17,1.22,-0.18,
1.85,-0.04,0.05,-1.88,-1.24,1.32,-0.13,
1.852,-0.04,0.05,-1.88,-1.30,1.41,-0.10,
1.855,-0.18,-0.03,-1.65,-1.30,1.41,-0.10,
1.855,-0.18,-0.03,-1.65,-1.36,1.49,-0.06,
1.857,-0.18,-0.03,-1.65,-1.42,1.56,-0.03,
1.86,-0.29,-0.11,-1.30,-1.42,1.56,-0.03,
1.86,-0.29,-0.11,-1.30,-1.46,1.61,0.00,
1.862,-0.29,-0.11,-1.30,-1.50,1.66,0.03,
1.868,-0.29,-0.11,-1.30,-1.53,1.69,0.05,
1.868,-0.32,-0.09,-0.89,-1.53,1.69,0.05,
1.868,-0.32,-0.09,-0.89,-1.56,1.72,0.07,
1.87,-0.32,-0.09,-0.89,-1.58,1.74,0.08,
1.87,-0.27,-0.02,-0.48,-1.58,1.74,0.08,
1.873,-0.27,-0.02,-0.48,-1.60,1.77,0.09,
1.879,-0.03,0.21,-0.13,-1.60,1.77,0.09,
1.879,-0.03,0.21,-0.13,-1.61,1.80,0.10,
1.879,-0.03,0.21,-0.13,-1.62,1.83,0.10,
1.879,0.33,0.42,0.12,-1.62,1.83,0.10,
1.879,0.33,0.42,0.12,-1.63,1.88,0.09,
1.881,0.33,0.42,0.12,-1.64,1.93,0.08,
1.884,0.75,0.56,0.25,-1.64,1.93,0.08,
1.884,0.75,0.56,0.25,-1.64,2.00,0.07,
1.886,0.75,0.56,0.25,-1.64,2.08,0.05,
1.889,1.16,0.71,0.34,-1.64,2.08,0.05,
1.889,1.16,0.71,0.34,-1.65,2.17,0.03,
1.891,1.16,0.71,0.34,-1.65,2.27,-0.00,
1.894,1.16,0.71,0.34,-1.66,2.39,-0.03,
1.894,1.54,0.85,0.42,-1.66,2.39,-0.03,
1.896,1.54,0.85,0.42,-1.67,2.52,-0.07,
1.899,1.94,0.90,0.43,-1.67,2.52,-0.07,
1.9,1.94,0.90,0.43,-1.69,2.64,-0.11,
1.901,1.94,0.90,0.43,-1.70,2.78,-0.15,
1.904,1.94,0.90,0.43,-1.73,2.92,-0.18,
1.904,2.21,0.93,0.34,-1.73,2.92,-0.18,
1.906,2.21,0.93,0.34,-1.75,3.07,-0.22,
1.908,2.38,0.91,0.16,-1.75,3.07,-0.22,
1.909,2.38,0.91,0.16,-1.78,3.22,-0.26,
1.911,2.38,0.91,0.16,-1.81,3.38,-0.29,
1.914,2.38,0.91,0.16,-1.84,3.54,-0.33,
1.914,2.42,0.82,-0.10,-1.84,3.54,-0.33,
1.915,2.42,0.82,-0.10,-1.87,3.69,-0.35,
1.917,2.30,0.77,-0.37,-1.87,3.69,-0.35,
1.918,2.30,0.77,-0.37,-1.90,3.84,-0.37,
1.921,2.30,0.77,-0.37,-1.92,3.98,-0.38,
1.923,1.98,0.85,-0.49,-1.92,3.98,-0.38,
1.924,1.98,0.85,-0.49,-1.95,4.10,-0.38,
1.925,1.98,0.85,-0.49,-1.98,4.22,-0.38,
1.927,1.54,0.87,-0.56,-1.98,4.22,-0.38,
1.928,1.54,0.87,-0.56,-2.01,4.33,-0.36,
1.93,1.54,0.87,-0.56,-2.04,4.43,-0.34,
1.932,0.95,0.73,-0.74,-2.04,4.43,-0.34,
1.933,0.95,0.73,-0.74,-2.07,4.51,-0.31,
1.935,0.95,0.73,-0.74,-2.09,4.56,-0.26,
1.938,0.95,0.73,-0.74,-2.11,4.58,-0.21,
1.938,0.24,0.59,-0.74,-2.11,4.58,-0.21,
1.939,0.24,0.59,-0.74,-2.12,4.57,-0.15,
1.942,0.24,0.59,-0.74,-2.13,4.51,-0.08,
1.942,-0.45,0.44,-0.45,-2.13,4.51,-0.08,
1.944,-0.45,0.44,-0.45,-2.13,4.43,-0.01,
1.947,-0.45,0.44,-0.45,-2.13,4.31,0.07,
1.947,-1.01,0.32,0.06,-2.13,4.31,0.07,
1.949,-1.01,0.32,0.06,-2.12,4.16,0.14,
1.951,-1.45,0.16,0.55,-2.12,4.16,0.14,
1.952,-1.45,0.16,0.55,-2.10,3.98,0.21,
1.954,-1.45,0.16,0.55,-2.08,3.77,0.28,
1.957,-1.45,0.16,0.55,-2.06,3.53,0.35,
1.957,-1.77,0.07,1.07,-2.06,3.53,0.35,
1.959,-1.77,0.07,1.07,-2.02,3.24,0.42,
1.962,-2.02,-0.23,1.63,-2.02,3.24,0.42,
1.962,-2.02,-0.23,1.63,-1.98,2.91,0.48,
1.968,-2.02,-0.23,1.63,-1.93,2.55,0.54,
1.968,-2.26,-0.51,2.20,-1.93,2.55,0.54,
1.969,-2.26,-0.51,2.20,-1.87,2.16,0.60,
1.971,-2.26,-0.51,2.20,-1.80,1.74,0.65,
1.972,-2.26,-0.51,2.20,-1.73,1.30,0.70,
1.973,-2.37,-0.73,2.58,-1.73,1.30,0.70,
1.979,-2.37,-0.73,2.58,-1.64,0.83,0.74,
1.98,-2.37,-0.73,2.58,-1.55,0.36,0.78,
1.98,-2.53,-0.97,2.85,-1.55,0.36,0.78,
1.98,-2.53,-0.97,2.85,-1.44,-0.10,0.81,
1.981,-2.63,-1.21,2.87,-1.44,-0.10,0.81,
1.981,-2.63,-1.21,2.87,-1.32,-0.54,0.81,
1.983,-2.63,-1.21,2.87,-1.18,-0.95,0.80,
1.986,-2.63,-1.21,2.87,-1.03,-1.34,0.77,
1.986,-2.48,-1.79,2.30,-1.03,-1.34,0.77,
1.989,-2.48,-1.79,2.30,-0.86,-1.70,0.72,
1.991,-2.48,-1.79,2.30,-0.68,-2.04,0.65,
1.991,-2.22,-2.23,1.73,-0.68,-2.04,0.65,
1.993,-2.22,-2.23,1.73,-0.50,-2.35,0.57,
1.996,-1.83,-2.61,1.40,-0.50,-2.35,0.57,
1.996,-1.83,-2.61,1.40,-0.30,-2.62,0.46,
1.998,-1.83,-2.61,1.40,-0.10,-2.87,0.35,
2.001,-1.30,-2.76,1.14,-0.10,-2.87,0.35,
2.001,-1.30,-2.76,1.14,0.10,-3.10,0.21,
2.003,-1.30,-2.76,1.14,0.30,-3.31,0.07,
2.005,-0.74,-2.68,1.41,0.30,-3.31,0.07,
2.005,-0.74,-2.68,1.41,0.49,-3.53,-0.07,
2.007,-0.74,-2.68,1.41,0.68,-3.75,-0.22,
2.01,-0.74,-2.68,1.41,0.85,-3.97,-0.36,
2.01,-0.34,-2.21,2.21,0.85,-3.97,-0.36,
2.012,-0.34,-2.21,2.21,1.01,-4.18,-0.49,
2.015,-0.12,-1.48,3.06,1.01,-4.18,-0.49,
2.015,-0.12,-1.48,3.06,1.16,-4.39,-0.61,
2.017,-0.12,-1.48,3.06,1.29,-4.58,-0.72,
2.02,-0.12,-1.48,3.06,1.40,-4.73,-0.83,
2.02,-0.11,-0.78,3.63,1.40,-4.73,-0.83,
2.023,-0.11,-0.78,3.63,1.51,-4.85,-0.92,
2.025,-0.13,-0.21,3.26,1.51,-4.85,-0.92,
2.025,-0.13,-0.21,3.26,1.60,-4.91,-0.99,
2.027,-0.13,-0.21,3.26,1.68,-4.93,-1.05,
2.029,-0.06,0.21,2.12,1.68,-4.93,-1.05,
2.03,-0.06,0.21,2.12,1.74,-4.91,-1.10,
2.031,-0.06,0.21,2.12,1.79,-4.86,-1.14,
2.034,-0.06,0.21,2.12,1.82,-4.77,-1.16,
2.035,0.07,0.49,1.04,1.82,-4.77,-1.16,
2.038,0.07,0.49,1.04,1.85,-4.65,-1.17,
2.039,0.26,0.64,-0.02,1.85,-4.65,-1.17,
2.04,0.26,0.64,-0.02,1.86,-4.49,-1.18,
2.041,0.26,0.64,-0.02,1.86,-4.30,-1.16,
2.044,0.26,0.64,-0.02,1.86,-4.09,-1.15,
2.044,0.53,0.48,-0.93,1.86,-4.09,-1.15,
2.046,0.53,0.48,-0.93,1.84,-3.85,-1.12,
2.048,0.72,0.20,-1.65,1.84,-3.85,-1.12,
2.048,0.72,0.20,-1.65,1.82,-3.58,-1.09,
2.051,0.72,0.20,-1.65,1.80,-3.28,-1.04,
2.054,0.72,0.20,-1.65,1.75,-2.93,-0.99,
2.054,0.78,-0.05,-2.39,1.75,-2.93,-0.99,
2.056,0.78,-0.05,-2.39,1.68,-2.53,-0.94,
2.058,0.78,-0.05,-2.39,1.58,-2.10,-0.88,
2.059,0.71,-0.26,-3.54,1.58,-2.10,-0.88,
2.061,0.71,-0.26,-3.54,1.45,-1.64,-0.82,
2.063,0.71,-0.26,-3.54,1.31,-1.21,-0.75,
2.063,0.73,-0.21,-4.76,1.31,-1.21,-0.75,
2.067,0.73,-0.21,-4.76,1.17,-0.82,-0.68,
2.068,0.57,-0.22,-4.90,1.17,-0.82,-0.68,
2.068,0.57,-0.22,-4.90,1.03,-0.47,-0.60,
2.07,0.57,-0.22,-4.90,0.88,-0.15,-0.52,
2.073,0.57,-0.22,-4.90,0.74,0.14,-0.43,
2.073,0.14,-0.25,-4.22,0.74,0.14,-0.43,
2.075,0.14,-0.25,-4.22,0.59,0.42,-0.34,
2.078,-0.26,-0.21,-3.82,0.59,0.42,-0.34,
2.078,-0.26,-0.21,-3.82,0.43,0.68,-0.25,
2.08,-0.26,-0.21,-3.82,0.28,0.91,-0.16,
2.082,-0.51,-0.17,-3.62,0.28,0.91,-0.16,
2.082,-0.51,-0.17,-3.62,0.11,1.13,-0.08,
2.085,-0.51,-0.17,-3.62,-0.05,1.34,-0.02,
2.087,-0.58,-0.24,-3.59,-0.05,1.34,-0.02,
2.087,-0.58,-0.24,-3.59,-0.22,1.54,0.04,
2.09,-0.58,-0.24,-3.59,-0.38,1.71,0.09,
2.092,-0.62,-0.37,-3.57,-0.38,1.71,0.09,
2.092,-0.62,-0.37,-3.57,-0.53,1.88,0.12,
2.094,-0.62,-0.37,-3.57,-0.67,2.02,0.15,
2.097,-0.73,-0.53,-3.41,-0.67,2.02,0.15,
2.097,-0.73,-0.53,-3.41,-0.80,2.14,0.17,
2.099,-0.73,-0.53,-3.41,-0.92,2.24,0.19,
2.102,-1.06,-0.58,-3.01,-0.92,2.24,0.19,
2.102,-1.06,-0.58,-3.01,-1.02,2.31,0.21,
2.105,-1.06,-0.58,-3.01,-1.11,2.36,0.22,
2.107,-1.06,-0.58,-3.01,-1.19,2.39,0.24,
2.107,-1.54,-0.56,-2.54,-1.19,2.39,0.24,
2.109,-1.54,-0.56,-2.54,-1.26,2.40,0.26,
2.112,-1.54,-0.56,-2.54,-1.31,2.38,0.28,
2.112,-2.04,-0.46,-1.98,-1.31,2.38,0.28,
2.114,-2.04,-0.46,-1.98,-1.35,2.35,0.29,
2.117,-2.43,-0.35,-1.34,-1.35,2.35,0.29,
2.117,-2.43,-0.35,-1.34,-1.37,2.28,0.31,
2.119,-2.43,-0.35,-1.34,-1.38,2.19,0.33,
2.123,-2.61,-0.19,-0.52,-1.38,2.19,0.33,
2.123,-2.61,-0.19,-0.52,-1.38,2.08,0.35,
2.124,-2.61,-0.19,-0.52,-1.36,1.95,0.37,
2.126,-2.61,-0.19,-0.52,-1.34,1.81,0.38,
2.127,-2.58,-0.05,0.21,-1.34,1.81,0.38,
2.129,-2.58,-0.05,0.21,-1.30,1.65,0.39,
2.131,-2.58,-0.05,0.21,-1.26,1.48,0.40,
2.132,-2.56,-0.02,0.89,-1.26,1.48,0.40,
2.134,-2.56,-0.02,0.89,-1.20,1.30,0.40,
2.136,-2.56,-0.02,0.89,-1.13,1.12,0.41,
2.137,-2.44,-0.04,1.57,-1.13,1.12,0.41,
2.139,-2.44,-0.04,1.57,-1.05,0.92,0.41,
2.141,-2.44,-0.04,1.57,-0.95,0.71,0.41,
2.141,-2.31,-0.05,2.15,-0.95,0.71,0.41,
2.143,-2.31,-0.05,2.15,-0.85,0.50,0.41,
2.145,-2.16,-0.07,2.69,-0.85,0.50,0.41,
2.146,-2.16,-0.07,2.69,-0.74,0.29,0.41,
2.148,-2.16,-0.07,2.69,-0.63,0.08,0.41,
2.15,-2.16,-0.07,2.69,-0.50,-0.14,0.40,
2.151,-2.01,-0.03,3.11,-0.50,-0.14,0.40,
2.153,-2.01,-0.03,3.11,-0.37,-0.35,0.39,
2.156,-2.01,-0.03,3.11,-0.23,-0.54,0.39,
2.156,-1.86,0.06,3.44,-0.23,-0.54,0.39,
2.158,-1.86,0.06,3.44,-0.08,-0.72,0.38,
2.16,-1.86,0.06,3.44,0.07,-0.90,0.38,
2.161,-1.65,0.11,3.38,0.07,-0.90,0.38,
2.163,-1.65,0.11,3.38,0.23,-1.06,0.37,
2.165,-1.65,0.11,3.38,0.39,-1.22,0.36,
2.166,-1.49,0.16,3.38,0.39,-1.22,0.36,
2.167,-1.49,0.16,3.38,0.55,-1.36,0.36,
2.17,-1.42,0.26,3.37,0.55,-1.36,0.36,
2.17,-1.42,0.26,3.37,0.70,-1.49,0.36,
2.173,-1.42,0.26,3.37,0.85,-1.62,0.36,
2.175,-1.42,0.26,3.37,1.00,-1.72,0.35,
2.175,-1.40,0.48,3.30,1.00,-1.72,0.35,
2.177,-1.40,0.48,3.30,1.14,-1.81,0.36,
2.18,-1.40,0.48,3.30,1.26,-1.88,0.36,
2.18,-1.35,0.71,3.12,1.26,-1.88,0.36,
2.182,-1.35,0.71,3.12,1.38,-1.93,0.36,
2.184,-1.18,0.90,2.71,1.38,-1.93,0.36,
2.185,-1.18,0.90,2.71,1.48,-1.96,0.36,
2.187,-1.18,0.90,2.71,1.58,-1.98,0.36,
2.194,-1.18,0.90,2.71,1.66,-1.97,0.36,
2.195,-0.96,0.93,2.09,1.66,-1.97,0.36,
2.195,-0.96,0.93,2.09,1.73,-1.95,0.36,
2.195,-0.67,0.86,1.34,1.73,-1.95,0.36,
2.195,-0.67,0.86,1.34,1.79,-1.90,0.36,
2.196,-0.67,0.86,1.34,1.83,-1.84,0.37,
2.2,-0.41,0.67,0.56,1.83,-1.84,0.37,
2.2,-0.41,0.67,0.56,1.87,-1.78,0.37,
2.201,-0.41,0.67,0.56,1.88,-1.71,0.37,
2.204,-0.41,0.67,0.56,1.88,-1.64,0.37,
2.204,-0.22,0.46,-0.02,1.88,-1.64,0.37,
2.206,-0.22,0.46,-0.02,1.87,-1.57,0.36,
2.209,-0.22,0.46,-0.02,1.85,-1.50,0.36,
2.209,-0.10,0.26,-0.35,1.85,-1.50,0.36,
2.211,-0.10,0.26,-0.35,1.83,-1.42,0.36,
2.214,-0.01,0.07,-0.54,1.83,-1.42,0.36,
2.214,-0.01,0.07,-0.54,1.79,-1.35,0.35,
2.216,-0.01,0.07,-0.54,1.74,-1.27,0.35,
2.219,0.07,-0.01,-0.78,1.74,-1.27,0.35,
2.219,0.07,-0.01,-0.78,1.68,-1.17,0.34,
2.223,0.07,-0.01,-0.78,1.60,-1.03,0.34,
2.224,0.14,0.00,-1.41,1.60,-1.03,0.34,
2.225,0.14,0.00,-1.41,1.49,-0.87,0.34,
2.226,0.14,0.00,-1.41,1.37,-0.69,0.34,
2.229,0.14,0.00,-1.41,1.24,-0.50,0.34,
2.229,0.29,0.05,-2.50,1.24,-0.50,0.34,
2.23,0.29,0.05,-2.50,1.10,-0.34,0.34,
2.232,0.46,0.01,-3.08,1.10,-0.34,0.34,
2.233,0.46,0.01,-3.08,0.98,-0.21,0.34,
2.235,0.46,0.01,-3.08,0.86,-0.11,0.35,
2.239,0.46,0.01,-3.08,0.76,-0.03,0.36,
2.24,0.43,-0.19,-2.57,0.76,-0.03,0.36,
2.24,0.43,-0.19,-2.57,0.67,0.03,0.38,
2.242,0.27,-0.22,-2.00,0.67,0.03,0.38,
2.242,0.27,-0.22,-2.00,0.60,0.08,0.40,
2.245,0.27,-0.22,-2.00,0.53,0.12,0.43,
2.247,0.04,-0.10,-1.61,0.53,0.12,0.43,
2.247,0.04,-0.10,-1.61,0.47,0.15,0.46,
2.249,0.04,-0.10,-1.61,0.42,0.18,0.49,
2.252,-0.21,0.14,-1.31,0.42,0.18,0.49,
2.252,-0.21,0.14,-1.31,0.38,0.20,0.53,
2.255,-0.21,0.14,-1.31,0.35,0.22,0.56,
2.257,-0.21,0.14,-1.31,0.32,0.23,0.60,
2.258,-0.37,0.40,-0.99,0.32,0.23,0.60,
2.259,-0.37,0.40,-0.99,0.30,0.26,0.63,
2.262,-0.37,0.40,-0.99,0.28,0.28,0.67,
2.262,-0.42,0.63,-0.76,0.28,0.28,0.67,
2.264,-0.42,0.63,-0.76,0.26,0.31,0.70,
2.267,-0.45,0.80,-0.70,0.26,0.31,0.70,
2.267,-0.45,0.80,-0.70,0.25,0.35,0.74,
2.269,-0.45,0.80,-0.70,0.24,0.39,0.77,
2.274,-0.45,0.80,-0.70,0.22,0.43,0.79,
2.274,-0.33,0.93,-0.67,0.22,0.43,0.79,
2.274,-0.33,0.93,-0.67,0.21,0.47,0.82,
2.277,-0.33,0.93,-0.67,0.20,0.51,0.85,
2.277,-0.13,0.93,-0.60,0.20,0.51,0.85,
2.279,-0.13,0.93,-0.60,0.18,0.55,0.87,
2.281,0.18,0.91,-0.44,0.18,0.55,0.87,
2.281,0.18,0.91,-0.44,0.17,0.59,0.88,
2.283,0.18,0.91,-0.44,0.16,0.65,0.89,
2.286,0.69,0.90,-0.17,0.16,0.65,0.89,
2.286,0.69,0.90,-0.17,0.15,0.71,0.89,
2.288,0.69,0.90,-0.17,0.14,0.78,0.88,
2.291,0.69,0.90,-0.17,0.13,0.87,0.86,
2.291,1.32,0.88,-0.03,0.13,0.87,0.86,
2.294,1.32,0.88,-0.03,0.12,0.97,0.84,
2.296,1.89,0.81,-0.04,0.12,0.97,0.84,
2.296,1.89,0.81,-0.04,0.12,1.08,0.81,
2.298,1.89,0.81,-0.04,0.11,1.21,0.78,
2.301,2.35,0.82,-0.18,0.11,1.21,0.78,
2.301,2.35,0.82,-0.18,0.11,1.32,0.74,
2.303,2.35,0.82,-0.18,0.10,1.44,0.70,
2.306,2.35,0.82,-0.18,0.10,1.57,0.65,
2.307,2.69,0.68,0.16,0.10,1.57,0.65,
2.308,2.69,0.68,0.16,0.10,1.72,0.61,
2.31,2.89,0.63,0.17,0.10,1.72,0.61,
2.311,2.89,0.63,0.17,0.10,1.88,0.56,
2.313,2.89,0.63,0.17,0.10,2.05,0.52,
2.315,3.00,0.63,-0.24,0.10,2.05,0.52,
2.316,3.00,0.63,-0.24,0.09,2.22,0.47,
2.317,3.00,0.63,-0.24,0.09,2.39,0.43,
2.322,3.03,0.71,-0.47,0.09,2.39,0.43,
2.323,3.03,0.71,-0.47,0.07,2.57,0.40,
2.323,3.03,0.71,-0.47,0.06,2.75,0.36,
2.325,3.03,0.71,-0.47,0.04,2.93,0.33,
2.325,2.96,0.71,-0.77,0.04,2.93,0.33,
2.327,2.96,0.71,-0.77,0.02,3.09,0.30,
2.33,2.96,0.71,-0.77,0.00,3.25,0.27,
2.33,2.83,0.66,-1.00,0.00,3.25,0.27,
2.334,2.83,0.66,-1.00,-0.02,3.39,0.24,
2.334,2.63,0.51,-1.13,-0.02,3.39,0.24,
2.335,2.63,0.51,-1.13,-0.05,3.51,0.21,
2.339,2.63,0.51,-1.13,-0.08,3.61,0.18,
2.34,2.41,0.32,-1.14,-0.08,3.61,0.18,
2.34,2.41,0.32,-1.14,-0.11,3.69,0.16,
2.341,2.41,0.32,-1.14,-0.14,3.73,0.13,
2.344,2.10,0.06,-1.05,-0.14,3.73,0.13,
2.344,2.10,0.06,-1.05,-0.17,3.75,0.10,
2.346,2.10,0.06,-1.05,-0.20,3.72,0.07,
2.349,2.10,0.06,-1.05,-0.22,3.67,0.04,
2.349,1.71,-0.14,-0.77,-0.22,3.67,0.04,
2.351,1.71,-0.14,-0.77,-0.24,3.59,0.02,
2.354,1.71,-0.14,-0.77,-0.26,3.47,-0.00,
2.354,1.19,-0.27,-0.41,-0.26,3.47,-0.00,
2.357,1.19,-0.27,-0.41,-0.26,3.32,-0.02,
2.359,1.19,-0.27,-0.41,-0.26,3.14,-0.03,
2.359,0.53,-0.26,0.08,-0.26,3.14,-0.03,
2.362,0.53,-0.26,0.08,-0.26,2.94,-0.04,
2.364,0.53,-0.26,0.08,-0.25,2.70,-0.04,
2.364,-0.19,-0.09,0.59,-0.25,2.70,-0.04,
2.366,-0.19,-0.09,0.59,-0.22,2.43,-0.03,
2.368,-0.81,0.14,1.06,-0.22,2.43,-0.03,
2.369,-0.81,0.14,1.06,-0.19,2.14,-0.02,
2.371,-0.81,0.14,1.06,-0.15,1.82,0.00,
2.376,-0.81,0.14,1.06,-0.10,1.48,0.02,
2.377,-1.33,0.39,1.49,-0.10,1.48,0.02,
2.377,-1.33,0.39,1.49,-0.04,1.12,0.04,
2.38,-1.33,0.39,1.49,0.03,0.76,0.07,
2.38,-1.66,0.65,1.80,0.03,0.76,0.07,
2.381,-1.66,0.65,1.80,0.10,0.39,0.09,
2.383,-1.83,0.89,1.97,0.10,0.39,0.09,
2.383,-1.83,0.89,1.97,0.18,0.02,0.11,
2.387,-1.83,0.89,1.97,0.28,-0.34,0.12,
2.388,-1.91,1.03,2.04,0.28,-0.34,0.12,
2.388,-1.91,1.03,2.04,0.37,-0.70,0.13,
2.391,-1.91,1.03,2.04,0.48,-1.04,0.14,
2.392,-1.87,1.08,1.98,0.48,-1.04,0.14,
2.392,-1.87,1.08,1.98,0.59,-1.36,0.14,
2.395,-1.87,1.08,1.98,0.71,-1.67,0.13,
2.397,-1.79,1.06,2.00,0.71,-1.67,0.13,
2.397,-1.79,1.06,2.00,0.83,-1.97,0.12,
2.4,-1.79,1.06,2.00,0.94,-2.25,0.10,
2.402,-1.75,1.05,2.04,0.94,-2.25,0.10,
2.402,-1.75,1.05,2.04,1.06,-2.51,0.08,
2.405,-1.75,1.05,2.04,1.17,-2.76,0.06,
2.407,-1.70,1.07,2.13,1.17,-2.76,0.06,
2.407,-1.70,1.07,2.13,1.28,-3.00,0.04,
2.409,-1.70,1.07,2.13,1.37,-3.22,0.02,
2.412,-1.70,1.07,2.13,1.47,-3.42,0.00,
2.412,-1.52,1.15,2.17,1.47,-3.42,0.00,
2.414,-1.52,1.15,2.17,1.55,-3.60,-0.02,
2.417,-1.20,1.12,2.00,1.55,-3.60,-0.02,
2.417,-1.20,1.12,2.00,1.63,-3.75,-0.04,
2.419,-1.20,1.12,2.00,1.71,-3.87,-0.06,
2.422,-1.20,1.12,2.00,1.77,-3.96,-0.09,
2.422,-0.82,1.04,1.56,1.77,-3.96,-0.09,
2.424,-0.82,1.04,1.56,1.83,-4.03,-0.11,
2.427,-0.44,0.86,0.98,1.83,-4.03,-0.11,
2.427,-0.44,0.86,0.98,1.88,-4.06,-0.14,
2.429,-0.44,0.86,0.98,1.92,-4.08,-0.16,
2.431,-0.44,0.86,0.98,1.95,-4.09,-0.19,
2.431,-0.09,0.77,0.44,1.95,-4.09,-0.19,
2.434,-0.09,0.77,0.44,1.97,-4.07,-0.21,
2.437,0.18,0.85,0.09,1.97,-4.07,-0.21,
2.437,0.18,0.85,0.09,1.98,-4.03,-0.23,
2.439,0.18,0.85,0.09,1.98,-3.97,-0.25,
2.441,0.51,0.89,-0.32,1.98,-3.97,-0.25,
2.442,0.51,0.89,-0.32,1.97,-3.88,-0.27,
2.444,0.51,0.89,-0.32,1.96,-3.77,-0.29,
2.446,0.51,0.89,-0.32,1.93,-3.65,-0.31,
2.446,0.85,0.83,-0.74,1.93,-3.65,-0.31,
2.448,0.85,0.83,-0.74,1.90,-3.51,-0.33,
2.451,1.12,0.74,-1.02,1.90,-3.51,-0.33,
2.452,1.12,0.74,-1.02,1.86,-3.35,-0.35,
2.453,1.12,0.74,-1.02,1.82,-3.18,-0.37,
2.456,1.38,0.57,-1.29,1.82,-3.18,-0.37,
2.457,1.38,0.57,-1.29,1.75,-2.96,-0.38,
2.458,1.38,0.57,-1.29,1.64,-2.65,-0.40,
2.46,1.62,0.42,-2.16,1.64,-2.65,-0.40,
2.461,1.62,0.42,-2.16,1.48,-2.24,-0.41,
2.463,1.62,0.42,-2.16,1.29,-1.83,-0.42,
2.466,2.08,0.49,-4.77,1.29,-1.83,-0.42,
2.466,2.08,0.49,-4.77,1.12,-1.48,-0.43,
2.468,2.08,0.49,-4.77,0.98,-1.20,-0.45,
2.47,2.24,0.11,-4.21,0.98,-1.20,-0.45,
2.471,2.24,0.11,-4.21,0.86,-0.93,-0.46,
2.473,2.24,0.11,-4.21,0.74,-0.66,-0.47,
2.475,2.24,0.11,-4.21,0.64,-0.39,-0.47,
2.476,2.17,-0.18,-3.37,0.64,-0.39,-0.47,
2.478,2.17,-0.18,-3.37,0.52,-0.10,-0.47,
2.48,2.04,-0.15,-3.53,0.52,-0.10,-0.47,
2.48,2.04,-0.15,-3.53,0.41,0.18,-0.47,
2.482,2.04,-0.15,-3.53,0.30,0.45,-0.46,
2.485,2.04,-0.15,-3.53,0.19,0.70,-0.45,
2.485,1.87,-0.05,-3.99,0.19,0.70,-0.45,
2.487,1.87,-0.05,-3.99,0.08,0.93,-0.45,
2.493,1.87,-0.05,-3.99,-0.01,1.12,-0.44,
2.493,1.63,-0.08,-3.89,-0.01,1.12,-0.44,
2.494,1.63,-0.08,-3.89,-0.10,1.29,-0.44,
2.495,1.63,-0.08,-3.89,-0.17,1.42,-0.43,
2.495,1.22,-0.16,-3.17,-0.17,1.42,-0.43,
2.497,1.22,-0.16,-3.17,-0.24,1.54,-0.41,
2.499,0.60,-0.18,-2.35,-0.24,1.54,-0.41,
2.5,0.60,-0.18,-2.35,-0.29,1.62,-0.39,
2.502,0.60,-0.18,-2.35,-0.33,1.69,-0.37,
2.505,-0.10,-0.24,-1.67,-0.33,1.69,-0.37,
2.505,-0.10,-0.24,-1.67,-0.37,1.74,-0.34,
2.507,-0.10,-0.24,-1.67,-0.40,1.76,-0.31,
2.509,-0.10,-0.24,-1.67,-0.41,1.76,-0.28,
2.509,-0.69,-0.39,-1.15,-0.41,1.76,-0.28,
2.511,-0.69,-0.39,-1.15,-0.42,1.74,-0.25,
2.514,-0.69,-0.39,-1.15,-0.43,1.70,-0.22,
2.514,-1.09,-0.60,-0.65,-0.43,1.70,-0.22,
2.516,-1.09,-0.60,-0.65,-0.43,1.64,-0.20,
2.519,-1.09,-0.60,-0.65,-0.42,1.56,-0.18,
2.519,-1.27,-0.84,-0.20,-0.42,1.56,-0.18,
2.523,-1.27,-0.84,-0.20,-0.41,1.47,-0.17,
2.524,-1.27,-0.84,-0.20,-0.40,1.36,-0.16,
2.524,-1.19,-1.08,0.19,-0.40,1.36,-0.16,
2.526,-1.19,-1.08,0.19,-0.38,1.23,-0.16,
2.528,-0.99,-1.27,0.57,-0.38,1.23,-0.16,
2.529,-0.99,-1.27,0.57,-0.36,1.09,-0.16,
2.531,-0.99,-1.27,0.57,-0.34,0.92,-0.15,
2.533,-0.99,-1.27,0.57,-0.31,0.74,-0.14,
2.534,-0.87,-1.52,0.99,-0.31,0.74,-0.14,
2.536,-0.87,-1.52,0.99,-0.28,0.54,-0.13,
2.539,-0.87,-1.52,0.99,-0.24,0.33,-0.11,
2.54,-0.86,-1.79,1.44,-0.24,0.33,-0.11,
2.541,-0.86,-1.79,1.44,-0.19,0.11,-0.09,
2.543,-0.86,-1.93,1.82,-0.19,0.11,-0.09,
2.543,-0.86,-1.93,1.82,-0.13,-0.12,-0.06,
2.546,-0.86,-1.93,1.82,-0.07,-0.34,-0.03,
2.548,-0.89,-1.99,2.06,-0.07,-0.34,-0.03,
2.548,-0.89,-1.99,2.06,-0.00,-0.57,0.01,
2.55,-0.89,-1.99,2.06,0.07,-0.79,0.04,
2.552,-0.88,-1.98,2.14,0.07,-0.79,0.04,
2.553,-0.88,-1.98,2.14,0.16,-1.02,0.08,
2.555,-0.88,-1.98,2.14,0.24,-1.25,0.12,
2.557,-0.91,-1.89,2.23,0.24,-1.25,0.12,
2.557,-0.91,-1.89,2.23,0.33,-1.47,0.17,
2.559,-0.91,-1.89,2.23,0.43,-1.69,0.21,
2.562,-1.01,-1.72,2.37,0.43,-1.69,0.21,
2.562,-1.01,-1.72,2.37,0.52,-1.91,0.26,
2.564,-1.01,-1.72,2.37,0.62,-2.12,0.31,
2.567,-1.01,-1.72,2.37,0.73,-2.33,0.36,
2.567,-1.14,-1.66,2.41,0.73,-2.33,0.36,
2.569,-1.14,-1.66,2.41,0.83,-2.53,0.40,
2.572,-1.14,-1.66,2.41,0.93,-2.73,0.45,
2.573,-1.25,-1.65,2.44,0.93,-2.73,0.45,
2.574,-1.25,-1.65,2.44,1.04,-2.91,0.50,
2.577,-1.31,-1.69,2.43,1.04,-2.91,0.50,
2.577,-1.31,-1.69,2.43,1.15,-3.09,0.54,
2.579,-1.31,-1.69,2.43,1.25,-3.25,0.58,
2.582,-1.31,-1.69,2.43,1.36,-3.40,0.63,
2.582,-1.32,-1.68,2.36,1.36,-3.40,0.63,
2.584,-1.32,-1.68,2.36,1.46,-3.53,0.66,
2.586,-1.24,-1.61,2.25,1.46,-3.53,0.66,
2.587,-1.24,-1.61,2.25,1.56,-3.65,0.70,
2.59,-1.24,-1.61,2.25,1.66,-3.76,0.73,
2.592,-1.24,-1.61,2.25,1.75,-3.84,0.76,
2.592,-1.13,-1.51,2.04,1.75,-3.84,0.76,
2.594,-1.13,-1.51,2.04,1.84,-3.92,0.78,
2.596,-1.13,-1.51,2.04,1.93,-3.97,0.81,
2.597,-1.01,-1.42,1.75,1.93,-3.97,0.81,
2.598,-1.01,-1.42,1.75,2.00,-4.01,0.83,
2.601,-0.88,-1.34,1.39,2.00,-4.01,0.83,
2.601,-0.88,-1.34,1.39,2.08,-4.04,0.84,
2.604,-0.88,-1.34,1.39,2.15,-4.06,0.85,
2.606,-0.72,-1.23,1.10,2.15,-4.06,0.85,
2.606,-0.72,-1.23,1.10,2.21,-4.07,0.86,
2.609,-0.72,-1.23,1.10,2.27,-4.06,0.87,
2.611,-0.72,-1.23,1.10,2.32,-4.05,0.87,
2.611,-0.52,-1.12,0.81,2.32,-4.05,0.87,
2.613,-0.52,-1.12,0.81,2.37,-4.03,0.87,
2.616,-0.52,-1.12,0.81,2.42,-4.01,0.87,
2.616,-0.27,-0.98,0.59,2.42,-4.01,0.87,
2.618,-0.27,-0.98,0.59,2.46,-3.97,0.87,
2.621,-0.27,-0.98,0.59,2.50,-3.94,0.86,
2.621,-0.06,-0.81,0.42,2.50,-3.94,0.86,
2.623,-0.06,-0.81,0.42,2.53,-3.90,0.85,
2.625,-0.06,-0.81,0.42,2.56,-3.86,0.84,
2.626,0.08,-0.70,0.25,2.56,-3.86,0.84,
2.628,0.08,-0.70,0.25,2.59,-3.81,0.83,
2.63,0.08,-0.70,0.25,2.61,-3.76,0.82,
2.63,0.14,-0.61,0.12,2.61,-3.76,0.82,
2.632,0.14,-0.61,0.12,2.63,-3.70,0.81,
2.635,0.17,-0.54,-0.00,2.63,-3.70,0.81,
2.635,0.17,-0.54,-0.00,2.65,-3.65,0.79,
2.637,0.17,-0.54,-0.00,2.67,-3.59,0.77,
2.639,0.16,-0.54,-0.15,2.67,-3.59,0.77,
2.64,0.16,-0.54,-0.15,2.68,-3.53,0.76,
2.642,0.16,-0.54,-0.15,2.69,-3.47,0.74,
2.645,0.16,-0.54,-0.15,2.69,-3.40,0.73,
2.645,0.15,-0.49,-0.31,2.69,-3.40,0.73,
2.647,0.15,-0.49,-0.31,2.70,-3.34,0.72,
2.65,0.15,-0.49,-0.31,2.70,-3.27,0.71,
2.65,0.09,-0.43,-0.52,2.70,-3.27,0.71,
2.652,0.09,-0.43,-0.52,2.69,-3.19,0.70,
2.655,0.09,-0.43,-0.52,2.69,-3.11,0.69,
2.655,0.07,-0.38,-0.74,2.69,-3.11,0.69,
2.657,0.07,-0.38,-0.74,2.68,-3.03,0.68,
2.659,0.06,-0.29,-1.00,2.68,-3.03,0.68,
2.66,0.06,-0.29,-1.00,2.66,-2.94,0.67,
2.662,0.06,-0.29,-1.00,2.65,-2.84,0.66,
2.664,0.06,-0.29,-1.00,2.63,-2.74,0.65,
2.664,0.15,-0.13,-1.25,2.63,-2.74,0.65,
2.666,0.15,-0.13,-1.25,2.61,-2.64,0.65,
2.669,0.31,0.06,-1.43,2.61,-2.64,0.65,
2.669,0.31,0.06,-1.43,2.59,-2.53,0.64,
2.672,0.31,0.06,-1.43,2.56,-2.42,0.64,
2.674,0.31,0.06,-1.43,2.53,-2.30,0.64,
2.674,0.50,0.23,-1.62,2.53,-2.30,0.64,
2.677,0.50,0.23,-1.62,2.50,-2.18,0.64,
2.679,0.68,0.36,-1.77,2.50,-2.18,0.64,
2.679,0.68,0.36,-1.77,2.46,-2.06,0.63,
2.681,0.68,0.36,-1.77,2.43,-1.93,0.63,
2.684,0.68,0.36,-1.77,2.38,-1.80,0.62,
2.684,0.83,0.41,-1.94,2.38,-1.80,0.62,
2.686,0.83,0.41,-1.94,2.34,-1.67,0.61,
2.692,0.83,0.41,-1.94,2.29,-1.53,0.60,
2.693,0.96,0.34,-2.11,2.29,-1.53,0.60,
2.693,0.96,0.34,-2.11,2.24,-1.39,0.58,
2.694,0.96,0.34,-2.11,2.18,-1.26,0.57,
2.694,1.03,0.26,-2.25,2.18,-1.26,0.57,
2.696,1.03,0.26,-2.25,2.11,-1.12,0.55,
2.699,1.03,0.26,-2.25,2.05,-0.98,0.52,
2.699,1.12,0.16,-2.39,2.05,-0.98,0.52,
2.7,1.12,0.16,-2.39,1.98,-0.84,0.50,
2.703,1.12,0.16,-2.39,1.90,-0.71,0.47,
2.703,1.20,-0.08,-2.58,1.90,-0.71,0.47,
2.707,1.20,-0.08,-2.58,1.81,-0.58,0.44,
2.707,1.22,-0.29,-2.81,1.81,-0.58,0.44,
2.708,1.22,-0.29,-2.81,1.73,-0.44,0.40,
2.71,1.22,-0.29,-2.81,1.64,-0.32,0.37,
2.712,1.18,-0.54,-3.05,1.64,-0.32,0.37,
2.712,1.18,-0.54,-3.05,1.54,-0.21,0.33,
2.715,1.18,-0.54,-3.05,1.44,-0.10,0.29,
2.717,1.09,-0.78,-3.19,1.44,-0.10,0.29,
2.717,1.09,-0.78,-3.19,1.34,-0.01,0.25,
2.72,1.09,-0.78,-3.19,1.23,0.07,0.21,
2.723,0.92,-0.98,-3.22,1.23,0.07,0.21,
2.724,0.92,-0.98,-3.22,1.12,0.14,0.17,
2.724,0.92,-0.98,-3.22,1.01,0.20,0.13,
2.727,0.72,-1.07,-3.13,1.01,0.20,0.13,
2.727,0.72,-1.07,-3.13,0.90,0.25,0.09,
2.729,0.72,-1.07,-3.13,0.79,0.28,0.06,
2.732,0.53,-1.06,-2.99,0.79,0.28,0.06,
2.732,0.53,-1.06,-2.99,0.67,0.30,0.03,
2.734,0.53,-1.06,-2.99,0.56,0.31,-0.00,
2.738,0.53,-1.06,-2.99,0.45,0.32,-0.03,
2.738,0.26,-0.89,-2.77,0.45,0.32,-0.03,
2.739,0.26,-0.89,-2.77,0.35,0.31,-0.04,
2.741,-0.09,-0.64,-2.52,0.35,0.31,-0.04,
2.741,-0.09,-0.64,-2.52,0.25,0.30,-0.05,
2.744,-0.09,-0.64,-2.52,0.16,0.28,-0.06,
2.746,-0.46,-0.37,-2.24,0.16,0.28,-0.06,
2.746,-0.46,-0.37,-2.24,0.08,0.26,-0.06,
2.748,-0.46,-0.37,-2.24,0.00,0.23,-0.06,
2.751,-0.46,-0.37,-2.24,-0.06,0.21,-0.05,
2.751,-0.83,-0.11,-1.95,-0.06,0.21,-0.05,
2.753,-0.83,-0.11,-1.95,-0.12,0.18,-0.03,
2.756,-0.83,-0.11,-1.95,-0.17,0.16,-0.02,
2.756,-1.10,0.10,-1.65,-0.17,0.16,-0.02,
2.758,-1.10,0.10,-1.65,-0.21,0.13,-0.00,
2.761,-1.10,0.10,-1.65,-0.25,0.11,0.02,
2.761,-1.28,0.28,-1.33,-0.25,0.11,0.02,
2.763,-1.28,0.28,-1.33,-0.27,0.08,0.04,
2.766,-1.30,0.44,-1.04,-0.27,0.08,0.04,
2.766,-1.30,0.44,-1.04,-0.29,0.06,0.06,
2.768,-1.30,0.44,-1.04,-0.31,0.04,0.07,
2.771,-1.30,0.44,-1.04,-0.32,0.03,0.09,
2.771,-1.21,0.48,-0.78,-0.32,0.03,0.09,
2.773,-1.21,0.48,-0.78,-0.32,0.01,0.11,
2.776,-1.05,0.50,-0.50,-0.32,0.01,0.11,
2.776,-1.05,0.50,-0.50,-0.32,-0.01,0.13,
2.778,-1.05,0.50,-0.50,-0.32,-0.02,0.14,
2.781,-0.89,0.54,-0.19,-0.32,-0.02,0.14,
2.781,-0.89,0.54,-0.19,-0.32,-0.03,0.16,
2.783,-0.89,0.54,-0.19,-0.31,-0.03,0.17,
2.786,-0.89,0.54,-0.19,-0.31,-0.03,0.17,
2.786,-0.65,0.61,0.03,-0.31,-0.03,0.17,
2.788,-0.65,0.61,0.03,-0.30,-0.02,0.17,
2.793,-0.65,0.61,0.03,-0.29,-0.01,0.17,
2.794,-0.38,0.64,0.18,-0.29,-0.01,0.17,
2.794,-0.38,0.64,0.18,-0.29,0.01,0.16,
2.796,-0.08,0.59,0.19,-0.29,0.01,0.16,
2.796,-0.08,0.59,0.19,-0.28,0.04,0.15,
2.798,-0.08,0.59,0.19,-0.28,0.06,0.13,
2.8,0.16,0.48,0.16,-0.28,0.06,0.13,
2.8,0.16,0.48,0.16,-0.28,0.09,0.11,
2.802,0.16,0.48,0.16,-0.28,0.12,0.09,
2.805,0.16,0.48,0.16,-0.28,0.16,0.07,
2.805,0.39,0.37,0.13,-0.28,0.16,0.07,
2.807,0.39,0.37,0.13,-0.28,0.19,0.05,
2.809,0.39,0.37,0.13,-0.29,0.22,0.02,
2.81,0.57,0.23,0.16,-0.29,0.22,0.02,
2.812,0.57,0.23,0.16,-0.30,0.25,-0.00,
2.815,0.57,0.23,0.16,-0.30,0.28,-0.03,
2.815,0.67,0.11,0.22,-0.30,0.28,-0.03,
2.817,0.67,0.11,0.22,-0.31,0.31,-0.05,
2.819,0.75,0.04,0.31,-0.31,0.31,-0.05,
2.82,0.75,0.04,0.31,-0.33,0.34,-0.08,
2.822,0.75,0.04,0.31,-0.34,0.37,-0.10,
2.824,0.72,0.01,0.41,-0.34,0.37,-0.10,
2.824,0.72,0.01,0.41,-0.35,0.39,-0.12,
2.826,0.72,0.01,0.41,-0.36,0.41,-0.14,
2.829,0.72,0.01,0.41,-0.37,0.44,-0.16,
2.829,0.72,-0.03,0.50,-0.37,0.44,-0.16,
2.831,0.72,-0.03,0.50,-0.38,0.46,-0.18,
2.834,0.72,-0.03,0.50,-0.39,0.49,-0.19,
2.834,0.72,-0.11,0.51,-0.39,0.49,-0.19,
2.837,0.72,-0.11,0.51,-0.40,0.52,-0.21,
2.839,0.72,-0.11,0.51,-0.41,0.54,-0.22,
2.84,0.68,-0.23,0.50,-0.41,0.54,-0.22,
2.841,0.68,-0.23,0.50,-0.42,0.57,-0.23,
2.843,0.63,-0.34,0.48,-0.42,0.57,-0.23,
2.844,0.63,-0.34,0.48,-0.42,0.59,-0.24,
2.846,0.63,-0.34,0.48,-0.43,0.62,-0.24,
2.848,0.51,-0.47,0.50,-0.43,0.62,-0.24,
2.848,0.51,-0.47,0.50,-0.43,0.64,-0.24,
2.85,0.51,-0.47,0.50,-0.44,0.66,-0.23,
2.853,0.32,-0.57,0.57,-0.44,0.66,-0.23,
2.854,0.32,-0.57,0.57,-0.44,0.67,-0.22,
2.856,0.32,-0.57,0.57,-0.44,0.67,-0.21,
2.859,0.32,-0.57,0.57,-0.44,0.67,-0.19,
2.859,0.06,-0.73,0.67,-0.44,0.67,-0.19,
2.86,0.06,-0.73,0.67,-0.44,0.65,-0.17,
2.863,-0.21,-0.88,0.80,-0.44,0.65,-0.17,
2.863,-0.21,-0.88,0.80,-0.44,0.63,-0.15,
2.865,-0.21,-0.88,0.80,-0.43,0.59,-0.12,
2.868,-0.45,-1.03,1.00,-0.43,0.59,-0.12,
2.868,-0.45,-1.03,1.00,-0.42,0.54,-0.10,
2.871,-0.45,-1.03,1.00,-0.41,0.48,-0.07,
2.873,-0.70,-1.18,1.25,-0.41,0.48,-0.07,
2.873,-0.70,-1.18,1.25,-0.40,0.40,-0.03,
2.874,-0.70,-1.18,1.25,-0.37,0.31,0.00,
2.877,-0.95,-1.27,1.54,-0.37,0.31,0.00,
2.877,-0.95,-1.27,1.54,-0.35,0.20,0.04,
2.879,-0.95,-1.27,1.54,-0.32,0.09,0.07,
2.882,-1.19,-1.34,1.86,-0.32,0.09,0.07,
2.882,-1.19,-1.34,1.86,-0.29,-0.04,0.11,
2.884,-1.19,-1.34,1.86,-0.25,-0.19,0.15,
2.887,-1.41,-1.37,2.17,-0.25,-0.19,0.15,
2.887,-1.41,-1.37,2.17,-0.21,-0.33,0.18,
2.892,-1.41,-1.37,2.17,-0.16,-0.49,0.22,
2.893,-1.56,-1.37,2.42,-0.16,-0.49,0.22,
2.893,-1.56,-1.37,2.42,-0.11,-0.65,0.25,
2.894,-1.56,-1.37,2.42,-0.05,-0.81,0.29,
2.897,-1.61,-1.30,2.66,-0.05,-0.81,0.29,
2.897,-1.61,-1.30,2.66,0.00,-0.97,0.32,
2.899,-1.61,-1.30,2.66,0.06,-1.13,0.35,
2.901,-1.61,-1.30,2.66,0.13,-1.29,0.38,
2.902,-1.54,-1.24,2.85,0.13,-1.29,0.38,
2.904,-1.54,-1.24,2.85,0.19,-1.44,0.40,
2.906,-1.54,-1.24,2.85,0.25,-1.58,0.43,
2.906,-1.46,-1.13,2.96,0.25,-1.58,0.43,
2.909,-1.46,-1.13,2.96,0.31,-1.72,0.45,
2.911,-1.29,-0.99,2.98,0.31,-1.72,0.45,
2.911,-1.29,-0.99,2.98,0.37,-1.85,0.47,
2.913,-1.29,-0.99,2.98,0.43,-1.96,0.49,
2.916,-1.05,-0.80,2.94,0.43,-1.96,0.49,
2.916,-1.05,-0.80,2.94,0.49,-2.06,0.50,
2.918,-1.05,-0.80,2.94,0.54,-2.13,0.52,
2.922,-1.05,-0.80,2.94,0.59,-2.19,0.52,
2.922,-0.69,-0.65,2.77,0.59,-2.19,0.52,
2.923,-0.69,-0.65,2.77,0.63,-2.24,0.53,
2.926,-0.69,-0.65,2.77,0.67,-2.26,0.53,
2.926,-0.28,-0.54,2.46,0.67,-2.26,0.53,
2.929,-0.28,-0.54,2.46,0.70,-2.27,0.54,
2.931,-0.28,-0.54,2.46,0.72,-2.27,0.54,
2.931,0.14,-0.41,2.10,0.72,-2.27,0.54,
2.933,0.14,-0.41,2.10,0.73,-2.24,0.54,
2.935,0.59,-0.18,1.68,0.73,-2.24,0.54,
2.936,0.59,-0.18,1.68,0.73,-2.19,0.54,
2.939,0.59,-0.18,1.68,0.73,-2.12,0.54,
2.94,1.12,0.04,1.15,0.73,-2.12,0.54,
2.941,1.12,0.04,1.15,0.71,-2.03,0.53,
2.943,1.12,0.04,1.15,0.68,-1.92,0.52,
2.946,1.12,0.04,1.15,0.65,-1.79,0.51,
2.946,1.72,0.19,0.56,0.65,-1.79,0.51,
2.948,1.72,0.19,0.56,0.60,-1.63,0.49,
2.95,2.33,0.19,-0.10,0.60,-1.63,0.49,
2.95,2.33,0.19,-0.10,0.55,-1.45,0.47,
2.952,2.33,0.19,-0.10,0.48,-1.25,0.44,
2.955,2.33,0.19,-0.10,0.41,-1.02,0.42,
2.956,2.82,0.09,-0.84,0.41,-1.02,0.42,
2.958,2.82,0.09,-0.84,0.33,-0.78,0.39,
2.96,3.21,-0.04,-1.58,0.33,-0.78,0.39,
2.96,3.21,-0.04,-1.58,0.23,-0.51,0.36,
2.962,3.21,-0.04,-1.58,0.13,-0.24,0.33,
2.965,3.47,-0.21,-2.28,0.13,-0.24,0.33,
2.965,3.47,-0.21,-2.28,0.02,0.04,0.30,
2.967,3.47,-0.21,-2.28,-0.10,0.33,0.26,
2.97,3.50,-0.35,-2.66,-0.10,0.33,0.26,
2.97,3.50,-0.35,-2.66,-0.21,0.61,0.23,
2.972,3.50,-0.35,-2.66,-0.33,0.89,0.20,
2.974,3.50,-0.35,-2.66,-0.45,1.17,0.17,
2.975,3.41,-0.38,-2.80,-0.45,1.17,0.17,
2.977,3.41,-0.38,-2.80,-0.57,1.44,0.14,
2.979,3.41,-0.38,-2.80,-0.68,1.71,0.11,
2.98,3.22,-0.39,-2.76,-0.68,1.71,0.11,
2.981,3.22,-0.39,-2.76,-0.79,1.96,0.08,
2.984,3.03,-0.35,-2.59,-0.79,1.96,0.08,
2.985,3.03,-0.35,-2.59,-0.90,2.20,0.05,
2.986,3.03,-0.35,-2.59,-0.99,2.43,0.02,
2.989,2.78,-0.32,-2.31,-0.99,2.43,0.02,
2.989,2.78,-0.32,-2.31,-1.08,2.64,-0.00,
2.991,2.78,-0.32,-2.31,-1.16,2.84,-0.02,
2.994,2.50,-0.29,-1.88,-1.16,2.84,-0.02,
2.994,2.50,-0.29,-1.88,-1.22,3.01,-0.04,
2.996,2.50,-0.29,-1.88,-1.28,3.17,-0.05,
2.998,2.09,-0.26,-1.38,-1.28,3.17,-0.05,
2.999,2.09,-0.26,-1.38,-1.32,3.31,-0.06,
3.001,2.09,-0.26,-1.38,-1.36,3.42,-0.07,
3.004,2.09,-0.26,-1.38,-1.39,3.52,-0.07,
3.004,1.50,-0.23,-0.91,-1.39,3.52,-0.07,
3.009,1.50,-0.23,-0.91,-1.40,3.59,-0.07,
3.01,0.78,-0.21,-0.39,-1.40,3.59,-0.07,
3.01,0.78,-0.21,-0.39,-1.41,3.63,-0.06,
3.011,0.78,-0.21,-0.39,-1.41,3.65,-0.05,
3.013,0.13,-0.18,0.20,-1.41,3.65,-0.05,
3.013,0.13,-0.18,0.20,-1.40,3.64,-0.04,
3.016,0.13,-0.18,0.20,-1.38,3.60,-0.03,
3.018,0.13,-0.18,0.20,-1.35,3.54,-0.02,
3.018,-0.41,-0.14,0.85,-1.35,3.54,-0.02,
3.021,-0.41,-0.14,0.85,-1.31,3.45,-0.00,
3.023,-0.80,-0.08,1.52,-1.31,3.45,-0.00,
3.023,-0.80,-0.08,1.52,-1.26,3.33,0.01,
3.025,-0.80,-0.08,1.52,-1.19,3.19,0.03,
3.031,-0.80,-0.08,1.52,-1.12,3.02,0.04,
3.031,-1.05,0.03,2.19,-1.12,3.02,0.04,
3.031,-1.05,0.03,2.19,-1.03,2.82,0.06,
3.032,-1.14,0.11,2.91,-1.03,2.82,0.06,
3.033,-1.14,0.11,2.91,-0.94,2.62,0.07,
3.035,-1.14,0.11,2.91,-0.84,2.40,0.08,
3.039,-1.14,0.11,2.91,-0.74,2.18,0.09,
3.039,-1.10,0.27,3.38,-0.74,2.18,0.09,
3.04,-1.10,0.27,3.38,-0.64,1.95,0.09,
3.042,-1.10,0.27,3.38,-0.53,1.72,0.08,
3.042,-1.07,0.38,3.61,-0.53,1.72,0.08,
3.044,-1.07,0.38,3.61,-0.42,1.48,0.08,
3.046,-1.00,0.49,3.73,-0.42,1.48,0.08,
3.046,-1.00,0.49,3.73,-0.31,1.24,0.06,
3.049,-1.00,0.49,3.73,-0.21,1.00,0.05,
3.051,-0.96,0.51,3.78,-0.21,1.00,0.05,
3.052,-0.96,0.51,3.78,-0.09,0.76,0.03,
3.054,-0.96,0.51,3.78,0.01,0.53,0.01,
3.056,-0.92,0.54,3.70,0.01,0.53,0.01,
3.056,-0.92,0.54,3.70,0.12,0.29,-0.02,
3.059,-0.92,0.54,3.70,0.22,0.07,-0.05,
3.061,-0.92,0.54,3.70,0.32,-0.15,-0.08,
3.061,-0.89,0.54,3.56,0.32,-0.15,-0.08,
3.064,-0.89,0.54,3.56,0.41,-0.36,-0.11,
3.066,-0.89,0.54,3.56,0.50,-0.56,-0.14,
3.066,-0.89,0.54,3.32,0.50,-0.56,-0.14,
3.069,-0.89,0.54,3.32,0.59,-0.75,-0.17,
3.071,-0.89,0.54,3.32,0.66,-0.93,-0.20,
3.071,-0.94,0.58,2.99,0.66,-0.93,-0.20,
3.073,-0.94,0.58,2.99,0.73,-1.10,-0.23,
3.076,-1.03,0.65,2.63,0.73,-1.10,-0.23,
3.076,-1.03,0.65,2.63,0.79,-1.25,-0.26,
3.078,-1.03,0.65,2.63,0.84,-1.39,-0.27,
3.081,-1.10,0.73,2.19,0.84,-1.39,-0.27,
3.081,-1.10,0.73,2.19,0.89,-1.50,-0.29,
3.083,-1.10,0.73,2.19,0.93,-1.61,-0.30,
3.086,-1.16,0.81,1.72,0.93,-1.61,-0.30,
3.086,-1.16,0.81,1.72,0.96,-1.69,-0.31,
3.088,-1.16,0.81,1.72,0.98,-1.76,-0.31,
3.091,-1.15,0.86,1.17,0.98,-1.76,-0.31,
3.091,-1.15,0.86,1.17,1.00,-1.80,-0.32,
3.093,-1.15,0.86,1.17,1.01,-1.84,-0.32,
3.096,-1.12,0.85,0.59,1.01,-1.84,-0.32,
3.096,-1.12,0.85,0.59,1.01,-1.85,-0.32,
3.098,-1.12,0.85,0.59,1.00,-1.84,-0.31,
3.1,-1.06,0.88,-0.02,1.00,-1.84,-0.31,
3.101,-1.06,0.88,-0.02,0.98,-1.81,-0.31,
3.102,-1.06,0.88,-0.02,0.94,-1.77,-0.30,
3.109,-1.06,0.88,-0.02,0.90,-1.71,-0.30,
3.11,-0.85,0.91,-0.66,0.90,-1.71,-0.30,
3.11,-0.85,0.91,-0.66,0.85,-1.63,-0.29,
3.11,-0.57,0.89,-1.24,0.85,-1.63,-0.29,
3.11,-0.57,0.89,-1.24,0.78,-1.54,-0.29,
3.113,-0.57,0.89,-1.24,0.71,-1.43,-0.29,
3.115,-0.31,0.81,-1.81,0.71,-1.43,-0.29,
3.115,-0.31,0.81,-1.81,0.63,-1.31,-0.29,
3.117,-0.31,0.81,-1.81,0.55,-1.17,-0.29,
3.119,-0.31,0.81,-1.81,0.46,-1.02,-0.29,
3.12,-0.09,0.67,-2.31,0.46,-1.02,-0.29,
3.122,-0.09,0.67,-2.31,0.36,-0.87,-0.29,
3.124,-0.09,0.67,-2.31,0.25,-0.70,-0.30,
3.125,0.10,0.55,-2.68,0.25,-0.70,-0.30,
3.127,0.10,0.55,-2.68,0.15,-0.53,-0.30,
3.129,0.10,0.55,-2.68,0.04,-0.36,-0.31,
3.13,0.30,0.41,-2.92,0.04,-0.36,-0.31,
3.132,0.30,0.41,-2.92,-0.06,-0.18,-0.31,
3.134,0.30,0.41,-2.92,-0.17,0.00,-0.32,
3.135,0.45,0.28,-3.04,-0.17,0.00,-0.32,
3.139,0.45,0.28,-3.04,-0.27,0.18,-0.32,
3.139,0.45,0.28,-3.04,-0.38,0.35,-0.32,
3.14,0.58,0.13,-3.02,-0.38,0.35,-0.32,
3.142,0.58,0.13,-3.02,-0.47,0.53,-0.33,
3.144,0.58,0.13,-3.02,-0.56,0.69,-0.33,
3.144,0.63,0.06,-2.83,-0.56,0.69,-0.33,
3.146,0.63,0.06,-2.83,-0.64,0.86,-0.33,
3.149,0.63,0.06,-2.83,-0.72,1.01,-0.32,
3.149,0.62,-0.04,-2.56,-0.72,1.01,-0.32,
3.151,0.62,-0.04,-2.56,-0.79,1.15,-0.31,
3.155,0.62,-0.04,-2.56,-0.85,1.27,-0.29,
3.155,0.48,-0.06,-2.18,-0.85,1.27,-0.29,
3.156,0.48,-0.06,-2.18,-0.90,1.39,-0.26,
3.159,0.22,-0.11,-1.73,-0.90,1.39,-0.26,
3.159,0.22,-0.11,-1.73,-0.95,1.48,-0.24,
3.161,0.22,-0.11,-1.73,-0.98,1.57,-0.21,
3.163,0.22,-0.11,-1.73,-1.01,1.65,-0.17,
3.164,-0.10,-0.18,-1.31,-1.01,1.65,-0.17,
3.165,-0.10,-0.18,-1.31,-1.04,1.71,-0.14,
3.168,-0.38,-0.25,-0.92,-1.04,1.71,-0.14,
3.168,-0.38,-0.25,-0.92,-1.06,1.75,-0.10,
3.171,-0.38,-0.25,-0.92,-1.07,1.78,-0.07,
3.173,-0.38,-0.25,-0.92,-1.08,1.80,-0.04,
3.173,-0.60,-0.34,-0.55,-1.08,1.80,-0.04,
3.175,-0.60,-0.34,-0.55,-1.08,1.80,-0.01,
3.178,-0.60,-0.34,-0.55,-1.08,1.78,0.01,
3.178,-0.76,-0.42,-0.16,-1.08,1.78,0.01,
3.18,-0.76,-0.42,-0.16,-1.07,1.74,0.03,
3.183,-0.91,-0.49,0.29,-1.07,1.74,0.03,
3.183,-0.91,-0.49,0.29,-1.06,1.68,0.05,
3.185,-0.91,-0.49,0.29,-1.04,1.61,0.06,
3.188,-0.91,-0.49,0.29,-1.01,1.51,0.08,
3.188,-1.00,-0.59,0.80,-1.01,1.51,0.08,
3.193,-1.00,-0.59,0.80,-0.98,1.40,0.09,
3.194,-1.06,-0.58,1.31,-0.98,1.40,0.09,
3.194,-1.06,-0.58,1.31,-0.94,1.28,0.10,
3.195,-1.06,-0.58,1.31,-0.89,1.15,0.11,
3.197,-1.09,-0.55,1.73,-0.89,1.15,0.11,
3.197,-1.09,-0.55,1.73,-0.83,1.01,0.12,
3.199,-1.09,-0.55,1.73,-0.78,0.86,0.13,
3.202,-1.09,-0.55,1.73,-0.71,0.71,0.13,
3.202,-1.03,-0.49,2.04,-0.71,0.71,0.13,
3.206,-1.03,-0.49,2.04,-0.64,0.56,0.14,
3.206,-0.96,-0.40,2.24,-0.64,0.56,0.14,
3.207,-0.96,-0.40,2.24,-0.58,0.40,0.14,
3.209,-0.96,-0.40,2.24,-0.51,0.25,0.15,
3.211,-0.84,-0.31,2.36,-0.51,0.25,0.15,
3.211,-0.84,-0.31,2.36,-0.44,0.10,0.15,
3.214,-0.84,-0.31,2.36,-0.37,-0.04,0.15,
3.216,-0.69,-0.23,2.38,-0.37,-0.04,0.15,
3.216,-0.69,-0.23,2.38,-0.31,-0.18,0.15,
3.218,-0.69,-0.23,2.38,-0.25,-0.30,0.14,
3.221,-0.69,-0.23,2.38,-0.20,-0.40,0.13,
3.221,-0.48,-0.17,2.25,-0.20,-0.40,0.13,
3.224,-0.48,-0.17,2.25,-0.15,-0.49,0.12,
3.226,-0.23,-0.13,1.90,-0.15,-0.49,0.12,
3.226,-0.23,-0.13,1.90,-0.11,-0.55,0.11,
3.228,-0.23,-0.13,1.90,-0.08,-0.61,0.09,
3.231,0.02,-0.13,1.46,-0.08,-0.61,0.09,
3.231,0.02,-0.13,1.46,-0.05,-0.64,0.08,
3.233,0.02,-0.13,1.46,-0.03,-0.66,0.07,
3.236,0.23,-0.22,0.96,-0.03,-0.66,0.07,
3.236,0.23,-0.22,0.96,-0.03,-0.66,0.06,
3.238,0.23,-0.22,0.96,-0.03,-0.65,0.05,
3.241,0.39,-0.25,0.42,-0.03,-0.65,0.05,
3.241,0.39,-0.25,0.42,-0.04,-0.62,0.05,
3.243,0.39,-0.25,0.42,-0.06,-0.57,0.04,
3.246,0.39,-0.25,0.42,-0.09,-0.50,0.04,
3.246,0.56,-0.20,-0.12,-0.09,-0.50,0.04,
3.248,0.56,-0.20,-0.12,-0.13,-0.42,0.05,
3.25,0.75,-0.14,-0.75,-0.13,-0.42,0.05,
3.25,0.75,-0.14,-0.75,-0.18,-0.31,0.05,
3.255,0.75,-0.14,-0.75,-0.24,-0.19,0.05,
3.255,0.75,-0.14,-0.75,-0.32,-0.04,0.06,
3.256,0.97,-0.01,-1.40,-0.32,-0.04,0.06,
3.258,0.97,-0.01,-1.40,-0.40,0.12,0.07,
3.26,0.97,-0.01,-1.40,-0.49,0.31,0.07,
3.26,1.20,0.14,-2.03,-0.49,0.31,0.07,
3.262,1.20,0.14,-2.03,-0.59,0.51,0.07,
3.265,1.44,0.21,-2.81,-0.59,0.51,0.07,
3.265,1.44,0.21,-2.81,-0.69,0.72,0.07,
3.267,1.44,0.21,-2.81,-0.80,0.94,0.06,
3.27,1.44,0.21,-2.81,-0.91,1.17,0.05,
3.27,1.65,0.19,-3.26,-0.91,1.17,0.05,
3.272,1.65,0.19,-3.26,-1.02,1.40,0.03,
3.275,1.94,0.17,-3.56,-1.02,1.40,0.03,
3.275,1.94,0.17,-3.56,-1.14,1.62,0.01,
3.277,1.94,0.17,-3.56,-1.25,1.85,-0.02,
3.279,2.16,0.14,-3.64,-1.25,1.85,-0.02,
3.28,2.16,0.14,-3.64,-1.36,2.06,-0.05,
3.282,2.16,0.14,-3.64,-1.47,2.27,-0.09,
3.284,2.16,0.14,-3.64,-1.57,2.47,-0.13,
3.285,2.33,0.06,-3.53,-1.57,2.47,-0.13,
3.288,2.33,0.06,-3.53,-1.67,2.65,-0.18,
3.289,2.33,0.06,-3.53,-1.76,2.82,-0.23,
3.29,2.41,-0.03,-3.25,-1.76,2.82,-0.23,
3.292,2.41,-0.03,-3.25,-1.85,2.99,-0.28,
3.294,2.44,-0.13,-2.85,-1.85,2.99,-0.28,
3.295,2.44,-0.13,-2.85,-1.93,3.13,-0.34,
3.297,2.44,-0.13,-2.85,-1.99,3.27,-0.40,
3.299,2.40,-0.23,-2.38,-1.99,3.27,-0.40,
3.299,2.40,-0.23,-2.38,-2.06,3.39,-0.46,
3.302,2.40,-0.23,-2.38,-2.11,3.50,-0.51,
3.309,2.40,-0.23,-2.38,-2.16,3.59,-0.57,
3.31,2.31,-0.40,-1.88,-2.16,3.59,-0.57,
3.31,2.31,-0.40,-1.88,-2.20,3.67,-0.63,
3.31,2.31,-0.40,-1.88,-2.23,3.74,-0.68,
3.31,2.17,-0.53,-1.32,-2.23,3.74,-0.68,
3.311,2.17,-0.53,-1.32,-2.25,3.79,-0.74,
3.313,2.04,-0.69,-0.78,-2.25,3.79,-0.74,
3.313,2.04,-0.69,-0.78,-2.26,3.83,-0.79,
3.316,2.04,-0.69,-0.78,-2.26,3.87,-0.85,
3.318,2.04,-0.69,-0.78,-2.25,3.90,-0.90,
3.318,1.91,-0.89,-0.38,-2.25,3.90,-0.90,
3.321,1.91,-0.89,-0.38,-2.22,3.90,-0.95,
3.323,1.69,-1.13,0.08,-2.22,3.90,-0.95,
3.323,1.69,-1.13,0.08,-2.18,3.88,-0.99,
3.325,1.69,-1.13,0.08,-2.14,3.84,-1.03,
3.328,1.69,-1.13,0.08,-2.08,3.76,-1.07,
3.328,1.22,-1.28,0.78,-2.08,3.76,-1.07,
3.33,1.22,-1.28,0.78,-2.00,3.66,-1.09,
3.333,0.65,-1.24,1.66,-2.00,3.66,-1.09,
3.333,0.65,-1.24,1.66,-1.92,3.53,-1.10,
3.335,0.65,-1.24,1.66,-1.83,3.36,-1.11,
3.34,0.65,-1.24,1.66,-1.72,3.17,-1.10,
3.34,0.05,-1.14,2.55,-1.72,3.17,-1.10,
3.341,0.05,-1.14,2.55,-1.61,2.95,-1.08,
3.343,-0.57,-0.99,3.37,-1.61,2.95,-1.08,
3.343,-0.57,-0.99,3.37,-1.49,2.70,-1.05,
3.345,-0.57,-0.99,3.37,-1.36,2.43,-1.02,
3.348,-0.57,-0.99,3.37,-1.23,2.14,-0.98,
3.348,-1.17,-0.80,3.96,-1.23,2.14,-0.98,
3.35,-1.17,-0.80,3.96,-1.09,1.83,-0.93,
3.352,-1.17,-0.80,3.96,-0.95,1.51,-0.88,
3.352,-1.67,-0.68,4.41,-0.95,1.51,-0.88,
3.354,-1.67,-0.68,4.41,-0.80,1.17,-0.83,
3.357,-1.67,-0.68,4.41,-0.66,0.84,-0.78,
3.357,-1.94,-0.60,4.67,-0.66,0.84,-0.78,
3.359,-1.94,-0.60,4.67,-0.51,0.50,-0.74,
3.361,-2.08,-0.67,4.64,-0.51,0.50,-0.74,
3.362,-2.08,-0.67,4.64,-0.37,0.17,-0.70,
3.364,-2.08,-0.67,4.64,-0.23,-0.16,-0.66,
3.366,-2.08,-0.67,4.64,-0.10,-0.49,-0.63,
3.367,-2.04,-0.83,4.48,-0.10,-0.49,-0.63,
3.369,-2.04,-0.83,4.48,0.03,-0.81,-0.60,
3.371,-2.04,-0.83,4.48,0.15,-1.12,-0.59,
3.372,-2.00,-1.05,4.25,0.15,-1.12,-0.59,
3.374,-2.00,-1.05,4.25,0.27,-1.43,-0.57,
3.376,-1.96,-1.24,4.03,0.27,-1.43,-0.57,
3.376,-1.96,-1.24,4.03,0.38,-1.72,-0.55,
3.379,-1.96,-1.24,4.03,0.48,-2.00,-0.54,
3.382,-1.94,-1.40,3.80,0.48,-2.00,-0.54,
3.382,-1.94,-1.40,3.80,0.58,-2.27,-0.53,
3.384,-1.94,-1.40,3.80,0.67,-2.53,-0.52,
3.386,-1.94,-1.40,3.80,0.76,-2.76,-0.50,
3.386,-1.85,-1.43,3.54,0.76,-2.76,-0.50,
3.389,-1.85,-1.43,3.54,0.84,-2.98,-0.49,
3.391,-1.73,-1.42,3.18,0.84,-2.98,-0.49,
3.391,-1.73,-1.42,3.18,0.91,-3.17,-0.47,
3.393,-1.73,-1.42,3.18,0.97,-3.34,-0.45,
3.396,-1.73,-1.42,3.18,1.03,-3.47,-0.44,
3.396,-1.56,-1.31,2.76,1.03,-3.47,-0.44,
3.398,-1.56,-1.31,2.76,1.08,-3.58,-0.42,
3.4,-1.56,-1.31,2.76,1.12,-3.66,-0.41,
3.401,-1.30,-1.19,2.18,1.12,-3.66,-0.41,
3.403,-1.30,-1.19,2.18,1.14,-3.70,-0.39,
3.406,-1.01,-1.17,1.36,1.14,-3.70,-0.39,
3.406,-1.01,-1.17,1.36,1.15,-3.71,-0.38,
3.408,-1.01,-1.17,1.36,1.14,-3.70,-0.36,
3.41,-0.76,-1.15,0.55,1.14,-3.70,-0.36,
3.411,-0.76,-1.15,0.55,1.12,-3.66,-0.33,
3.413,-0.76,-1.15,0.55,1.09,-3.60,-0.31,
3.415,-0.76,-1.15,0.55,1.04,-3.50,-0.28,
3.416,-0.51,-1.04,-0.22,1.04,-3.50,-0.28,
3.419,-0.51,-1.04,-0.22,0.98,-3.37,-0.25,
3.42,-0.19,-0.99,-1.09,0.98,-3.37,-0.25,
3.421,-0.19,-0.99,-1.09,0.91,-3.21,-0.21,
3.422,-0.19,-0.99,-1.09,0.83,-3.03,-0.18,
3.425,-0.19,-0.99,-1.09,0.73,-2.81,-0.15,
3.425,0.23,-1.00,-1.99,0.73,-2.81,-0.15,
3.427,0.23,-1.00,-1.99,0.62,-2.56,-0.11,
3.43,0.23,-1.00,-1.99,0.50,-2.29,-0.08,
3.43,0.68,-1.06,-2.85,0.50,-2.29,-0.08,
3.432,0.68,-1.06,-2.85,0.37,-2.00,-0.04,
3.434,0.68,-1.06,-2.85,0.24,-1.70,-0.01,
3.435,1.11,-1.12,-3.59,0.24,-1.70,-0.01,
3.437,1.11,-1.12,-3.59,0.10,-1.38,0.03,
3.439,1.11,-1.12,-3.59,-0.05,-1.05,0.06,
3.44,1.36,-1.13,-4.08,-0.05,-1.05,0.06,
3.442,1.36,-1.13,-4.08,-0.20,-0.71,0.10,
3.444,1.36,-1.13,-4.08,-0.36,-0.37,0.14,
3.445,1.52,-1.09,-4.43,-0.36,-0.37,0.14,
3.447,1.52,-1.09,-4.43,-0.51,-0.03,0.17,
3.449,1.52,-1.09,-4.43,-0.66,0.31,0.20,
3.45,1.59,-1.02,-4.53,-0.66,0.31,0.20,
3.451,1.59,-1.02,-4.53,-0.81,0.64,0.22,
3.455,1.57,-0.92,-4.42,-0.81,0.64,0.22,
3.455,1.57,-0.92,-4.42,-0.95,0.96,0.24,
3.456,1.57,-0.92,-4.42,-1.09,1.28,0.26,
3.459,1.57,-0.92,-4.42,-1.22,1.58,0.27,
3.459,1.53,-0.79,-4.10,-1.22,1.58,0.27,
3.461,1.53,-0.79,-4.10,-1.34,1.86,0.28,
3.464,1.53,-0.79,-4.10,-1.44,2.12,0.28,
3.464,1.45,-0.56,-3.58,-1.44,2.12,0.28,
3.466,1.45,-0.56,-3.58,-1.53,2.36,0.28,
3.468,1.33,-0.40,-2.86,-1.53,2.36,0.28,
3.469,1.33,-0.40,-2.86,-1.61,2.57,0.28,
3.472,1.33,-0.40,-2.86,-1.68,2.76,0.27,
3.474,1.15,-0.18,-2.07,-1.68,2.76,0.27,
3.474,1.15,-0.18,-2.07,-1.73,2.93,0.26,
3.476,1.15,-0.18,-2.07,-1.77,3.08,0.25,
3.478,0.91,-0.03,-1.35,-1.77,3.08,0.25,
3.479,0.91,-0.03,-1.35,-1.81,3.21,0.24,
3.48,0.91,-0.03,-1.35,-1.83,3.32,0.22,
3.483,0.68,0.11,-0.68,-1.83,3.32,0.22,
3.483,0.68,0.11,-0.68,-1.84,3.41,0.19,
3.486,0.68,0.11,-0.68,-1.85,3.48,0.17,
3.488,0.68,0.11,-0.68,-1.84,3.52,0.14,
3.489,0.33,0.13,-0.04,-1.84,3.52,0.14,
3.49,0.33,0.13,-0.04,-1.82,3.53,0.11,
3.493,0.33,0.13,-0.04,-1.79,3.51,0.09,
3.493,-0.13,0.05,0.61,-1.79,3.51,0.09,
3.495,-0.13,0.05,0.61,-1.75,3.46,0.07,
3.497,-0.13,0.05,0.61,-1.70,3.37,0.05,
3.498,-0.60,-0.09,1.31,-1.70,3.37,0.05,
3.5,-0.60,-0.09,1.31,-1.63,3.25,0.03,
3.503,-1.02,-0.11,2.13,-1.63,3.25,0.03,
3.503,-1.02,-0.11,2.13,-1.56,3.09,0.01,
3.506,-1.02,-0.11,2.13,-1.46,2.88,-0.00,
3.507,-1.35,-0.06,3.13,-1.46,2.88,-0.00,
3.508,-1.35,-0.06,3.13,-1.34,2.63,-0.01,
3.51,-1.35,-0.06,3.13,-1.21,2.36,-0.01,
3.512,-1.35,-0.06,3.13,-1.06,2.08,-0.01,
3.512,-1.64,0.09,4.32,-1.06,2.08,-0.01,
3.514,-1.64,0.09,4.32,-0.90,1.78,-0.01,
3.517,-1.79,0.22,4.93,-0.90,1.78,-0.01,
3.517,-1.79,0.22,4.93,-0.73,1.46,-0.01,
3.519,-1.79,0.22,4.93,-0.55,1.13,-0.01,
3.521,-1.87,0.32,5.39,-0.55,1.13,-0.01,
3.522,-1.87,0.32,5.39,-0.37,0.79,-0.01,
3.525,-1.87,0.32,5.39,-0.18,0.44,-0.00,
3.526,-1.96,0.40,5.67,-0.18,0.44,-0.00,
3.526,-1.96,0.40,5.67,0.01,0.09,-0.01,
3.529,-1.96,0.40,5.67,0.20,-0.26,-0.01,
3.531,-2.10,0.43,5.71,0.20,-0.26,-0.01,
3.531,-2.10,0.43,5.71,0.38,-0.60,-0.01,
3.533,-2.10,0.43,5.71,0.56,-0.94,-0.02,
3.536,-2.10,0.43,5.71,0.74,-1.26,-0.03,
3.537,-2.19,0.38,5.53,0.74,-1.26,-0.03,
3.539,-2.19,0.38,5.53,0.90,-1.58,-0.04,
3.541,-2.26,0.22,5.14,0.90,-1.58,-0.04,
3.541,-2.26,0.22,5.14,1.06,-1.87,-0.06,
3.543,-2.26,0.22,5.14,1.21,-2.15,-0.08,
3.546,-2.26,0.22,5.14,1.35,-2.41,-0.10,
3.546,-2.29,-0.06,4.54,1.35,-2.41,-0.10,
3.548,-2.29,-0.06,4.54,1.47,-2.65,-0.11,
3.551,-2.34,-0.31,3.85,1.47,-2.65,-0.11,
3.551,-2.34,-0.31,3.85,1.59,-2.88,-0.13,
3.554,-2.34,-0.31,3.85,1.70,-3.10,-0.14,
3.556,-2.44,-0.54,3.19,1.70,-3.10,-0.14,
3.556,-2.44,-0.54,3.19,1.80,-3.31,-0.14,
3.558,-2.44,-0.54,3.19,1.89,-3.50,-0.14,
3.561,-2.44,-0.54,3.19,1.97,-3.67,-0.14,
3.561,-2.52,-0.70,2.61,1.97,-3.67,-0.14,
3.563,-2.52,-0.70,2.61,2.04,-3.82,-0.13,
3.565,-2.52,-0.70,2.61,2.10,-3.95,-0.12,
3.565,-2.61,-0.79,1.99,2.10,-3.95,-0.12,
3.568,-2.61,-0.79,1.99,2.15,-4.07,-0.11,
3.571,-2.61,-0.79,1.99,2.20,-4.16,-0.09,
3.571,-2.70,-0.81,1.33,2.20,-4.16,-0.09,
3.573,-2.70,-0.81,1.33,2.23,-4.23,-0.07,
3.575,-2.77,-0.75,0.65,2.23,-4.23,-0.07,
3.575,-2.77,-0.75,0.65,2.25,-4.28,-0.05,
3.577,-2.77,-0.75,0.65,2.27,-4.30,-0.01,
3.58,-2.76,-0.60,0.00,2.27,-4.30,-0.01,
3.58,-2.76,-0.60,0.00,2.27,-4.31,0.02,
3.582,-2.76,-0.60,0.00,2.26,-4.29,0.06,
3.585,-2.59,-0.42,-0.64,2.26,-4.29,0.06,
3.585,-2.59,-0.42,-0.64,2.24,-4.25,0.10,
3.587,-2.59,-0.42,-0.64,2.22,-4.19,0.13,
3.59,-2.30,-0.26,-1.29,2.22,-4.19,0.13,
3.59,-2.30,-0.26,-1.29,2.18,-4.11,0.17,
3.592,-2.30,-0.26,-1.29,2.13,-4.01,0.21,
3.594,-1.91,-0.13,-1.94,2.13,-4.01,0.21,
3.594,-1.91,-0.13,-1.94,2.08,-3.89,0.25,
3.597,-1.91,-0.13,-1.94,2.01,-3.76,0.28,
3.599,-1.49,-0.00,-2.54,2.01,-3.76,0.28,
3.599,-1.49,-0.00,-2.54,1.93,-3.60,0.31,
3.601,-1.49,-0.00,-2.54,1.85,-3.43,0.34,
3.608,-0.98,0.04,-3.11,1.85,-3.43,0.34,
3.608,-0.98,0.04,-3.11,1.76,-3.25,0.36,
3.608,-0.98,0.04,-3.11,1.66,-3.06,0.38,
3.609,-0.98,0.04,-3.11,1.56,-2.86,0.39,
3.61,-0.46,0.03,-3.63,1.56,-2.86,0.39,
3.611,-0.46,0.03,-3.63,1.45,-2.66,0.40,
3.614,0.08,-0.00,-3.84,1.45,-2.66,0.40,
3.614,0.08,-0.00,-3.84,1.34,-2.46,0.40,
3.617,0.08,-0.00,-3.84,1.23,-2.25,0.40,
3.619,0.08,-0.00,-3.84,1.11,-2.05,0.40,
3.619,0.58,0.04,-3.96,1.11,-2.05,0.40,
3.621,0.58,0.04,-3.96,0.99,-1.84,0.39,
3.625,1.00,0.11,-4.01,0.99,-1.84,0.39,
3.625,1.00,0.11,-4.01,0.87,-1.63,0.38,
3.626,1.00,0.11,-4.01,0.75,-1.42,0.36,
3.628,1.33,0.19,-4.02,0.75,-1.42,0.36,
3.628,1.33,0.19,-4.02,0.62,-1.21,0.34,
3.63,1.33,0.19,-4.02,0.50,-1.01,0.32,
3.633,1.61,0.28,-3.97,0.50,-1.01,0.32,
3.633,1.61,0.28,-3.97,0.39,-0.80,0.30,
3.635,1.61,0.28,-3.97,0.27,-0.59,0.27,
3.639,1.80,0.40,-3.88,0.27,-0.59,0.27,
3.639,1.80,0.40,-3.88,0.16,-0.39,0.25,
3.64,1.80,0.40,-3.88,0.05,-0.18,0.22,
3.643,1.80,0.40,-3.88,-0.06,0.02,0.19,
3.643,1.94,0.50,-3.74,-0.06,0.02,0.19,
3.645,1.94,0.50,-3.74,-0.16,0.22,0.17,
3.648,2.04,0.60,-3.58,-0.16,0.22,0.17,
3.648,2.04,0.60,-3.58,-0.26,0.41,0.14,
3.65,2.04,0.60,-3.58,-0.35,0.60,0.11,
3.653,2.04,0.60,-3.58,-0.44,0.79,0.09,
3.653,2.00,0.58,-3.41,-0.44,0.79,0.09,
3.656,2.00,0.58,-3.41,-0.52,0.97,0.07,
3.658,2.00,0.58,-3.41,-0.60,1.14,0.06,
3.658,1.89,0.57,-3.24,-0.60,1.14,0.06,
3.66,1.89,0.57,-3.24,-0.68,1.31,0.05,
3.662,1.67,0.53,-3.03,-0.68,1.31,0.05,
3.663,1.67,0.53,-3.03,-0.75,1.46,0.03,
3.665,1.67,0.53,-3.03,-0.81,1.61,0.03,
3.667,1.67,0.53,-3.03,-0.88,1.74,0.02,
3.667,1.47,0.46,-2.82,-0.88,1.74,0.02,
3.67,1.47,0.46,-2.82,-0.94,1.87,0.01,
3.672,1.47,0.46,-2.82,-0.99,1.98,0.00,
3.672,1.24,0.38,-2.56,-0.99,1.98,0.00,
3.674,1.24,0.38,-2.56,-1.05,2.08,-0.01,
3.677,1.24,0.38,-2.56,-1.10,2.17,-0.02,
3.677,1.03,0.30,-2.27,-1.10,2.17,-0.02,
3.679,1.03,0.30,-2.27,-1.14,2.25,-0.03,
3.681,1.03,0.30,-2.27,-1.18,2.31,-0.05,
3.682,0.87,0.20,-1.99,-1.18,2.31,-0.05,
3.684,0.87,0.20,-1.99,-1.22,2.36,-0.06,
3.691,0.70,0.10,-1.67,-1.22,2.36,-0.06,
3.691,0.70,0.10,-1.67,-1.25,2.39,-0.08,
3.691,0.70,0.10,-1.67,-1.28,2.41,-0.10,
3.692,0.51,-0.04,-1.33,-1.28,2.41,-0.10,
3.694,0.51,-0.04,-1.33,-1.30,2.42,-0.11,
3.695,0.51,-0.04,-1.33,-1.32,2.42,-0.13,
3.696,0.30,-0.14,-0.99,-1.32,2.42,-0.13,
3.696,0.30,-0.14,-0.99,-1.33,2.40,-0.15,
3.699,0.30,-0.14,-0.99,-1.33,2.36,-0.17,
3.701,0.30,-0.14,-0.99,-1.33,2.31,-0.19,
3.702,0.04,-0.20,-0.62,-1.33,2.31,-0.19,
3.704,0.04,-0.20,-0.62,-1.32,2.25,-0.21,
3.706,0.04,-0.20,-0.62,-1.31,2.18,-0.23,
3.706,-0.16,-0.20,-0.22,-1.31,2.18,-0.23,
3.708,-0.16,-0.20,-0.22,-1.29,2.09,-0.25,
3.71,-0.16,-0.20,-0.22,-1.27,1.99,-0.26,
3.711,-0.35,-0.20,0.25,-1.27,1.99,-0.26,
3.713,-0.35,-0.20,0.25,-1.24,1.89,-0.28,
3.716,-0.35,-0.20,0.25,-1.21,1.78,-0.30,
3.716,-0.51,-0.17,0.61,-1.21,1.78,-0.30,
3.718,-0.51,-0.17,0.61,-1.17,1.66,-0.31,
3.724,-0.51,-0.17,0.61,-1.13,1.55,-0.32,
3.724,-0.63,-0.16,0.88,-1.13,1.55,-0.32,
3.724,-0.63,-0.16,0.88,-1.09,1.42,-0.33,
3.725,-0.70,-0.15,1.12,-1.09,1.42,-0.33,
3.725,-0.70,-0.15,1.12,-1.04,1.29,-0.34,
3.727,-0.70,-0.15,1.12,-0.99,1.17,-0.35,
3.73,-0.80,-0.18,1.28,-0.99,1.17,-0.35,
3.73,-0.80,-0.18,1.28,-0.95,1.04,-0.36,
3.732,-0.80,-0.18,1.28,-0.90,0.91,-0.36,
3.735,-0.84,-0.21,1.39,-0.90,0.91,-0.36,
3.735,-0.84,-0.21,1.39,-0.86,0.79,-0.37,
3.737,-0.84,-0.21,1.39,-0.81,0.66,-0.38,
3.74,-0.84,-0.23,1.44,-0.81,0.66,-0.38,
3.74,-0.84,-0.23,1.44,-0.77,0.54,-0.39,
3.742,-0.84,-0.23,1.44,-0.73,0.42,-0.40,
3.744,-0.79,-0.32,1.45,-0.73,0.42,-0.40,
3.745,-0.79,-0.32,1.45,-0.68,0.31,-0.42,
3.747,-0.79,-0.32,1.45,-0.65,0.20,-0.42,
3.749,-0.72,-0.39,1.42,-0.65,0.20,-0.42,
3.749,-0.72,-0.39,1.42,-0.61,0.10,-0.43,
3.751,-0.72,-0.39,1.42,-0.58,-0.00,-0.44,
3.754,-0.72,-0.39,1.42,-0.55,-0.10,-0.45,
3.754,-0.63,-0.51,1.31,-0.55,-0.10,-0.45,
3.756,-0.63,-0.51,1.31,-0.52,-0.18,-0.46,
3.759,-0.59,-0.57,1.22,-0.52,-0.18,-0.46,
3.759,-0.59,-0.57,1.22,-0.49,-0.26,-0.47,
3.761,-0.59,-0.57,1.22,-0.46,-0.33,-0.47,
3.764,-0.54,-0.63,1.13,-0.46,-0.33,-0.47,
3.764,-0.54,-0.63,1.13,-0.43,-0.39,-0.48,
3.767,-0.54,-0.63,1.13,-0.41,-0.45,-0.48,
3.769,-0.53,-0.71,1.04,-0.41,-0.45,-0.48,
3.769,-0.53,-0.71,1.04,-0.38,-0.49,-0.48,
3.771,-0.53,-0.71,1.04,-0.35,-0.54,-0.48,
3.773,-0.54,-0.81,0.96,-0.35,-0.54,-0.48,
3.774,-0.54,-0.81,0.96,-0.33,-0.58,-0.48,
3.777,-0.54,-0.81,0.96,-0.30,-0.61,-0.47,
3.779,-0.55,-0.86,0.94,-0.30,-0.61,-0.47,
3.779,-0.55,-0.86,0.94,-0.27,-0.64,-0.46,
3.781,-0.55,-0.86,0.94,-0.24,-0.67,-0.45,
3.783,-0.62,-0.91,0.94,-0.24,-0.67,-0.45,
3.783,-0.62,-0.91,0.94,-0.22,-0.69,-0.43,
3.785,-0.62,-0.91,0.94,-0.18,-0.71,-0.41,
3.79,-0.63,-1.02,0.93,-0.18,-0.71,-0.41,
3.791,-0.63,-1.02,0.93,-0.16,-0.73,-0.39,
3.791,-0.63,-1.02,0.93,-0.12,-0.74,-0.37,
3.793,-0.68,-1.13,0.94,-0.12,-0.74,-0.37,
3.793,-0.68,-1.13,0.94,-0.09,-0.76,-0.34,
3.796,-0.68,-1.13,0.94,-0.06,-0.77,-0.32,
3.799,-0.71,-1.22,0.99,-0.06,-0.77,-0.32,
3.799,-0.71,-1.22,0.99,-0.03,-0.78,-0.29,
3.8,-0.71,-1.22,0.99,0.00,-0.80,-0.27,
3.803,-0.71,-1.22,0.99,0.03,-0.82,-0.24,
3.803,-0.73,-1.31,1.05,0.03,-0.82,-0.24,
3.806,-0.73,-1.31,1.05,0.07,-0.84,-0.22,
3.807,-0.74,-1.40,1.11,0.07,-0.84,-0.22,
3.808,-0.74,-1.40,1.11,0.11,-0.87,-0.19,
3.81,-0.74,-1.40,1.11,0.14,-0.89,-0.17,
3.812,-0.76,-1.43,1.17,0.14,-0.89,-0.17,
3.813,-0.76,-1.43,1.17,0.18,-0.92,-0.15,
3.815,-0.76,-1.43,1.17,0.21,-0.95,-0.12,
3.817,-0.72,-1.40,1.21,0.21,-0.95,-0.12,
3.818,-0.72,-1.40,1.21,0.25,-0.97,-0.10,
3.82,-0.72,-1.40,1.21,0.29,-0.99,-0.08,
3.822,-0.72,-1.40,1.21,0.32,-1.01,-0.06,
3.823,-0.68,-1.36,1.23,0.32,-1.01,-0.06,
3.825,-0.68,-1.36,1.23,0.36,-1.03,-0.05,
3.827,-0.61,-1.32,1.19,0.36,-1.03,-0.05,
3.827,-0.61,-1.32,1.19,0.39,-1.04,-0.03,
3.829,-0.61,-1.32,1.19,0.42,-1.05,-0.02,
3.832,-0.56,-1.27,1.08,0.42,-1.05,-0.02,
3.832,-0.56,-1.27,1.08,0.45,-1.06,-0.00,
3.834,-0.56,-1.27,1.08,0.48,-1.06,0.01,
3.837,-0.56,-1.27,1.08,0.51,-1.05,0.03,
3.837,-0.47,-1.20,0.98,0.51,-1.05,0.03,
3.839,-0.47,-1.20,0.98,0.53,-1.03,0.04,
3.842,-0.47,-1.20,0.98,0.55,-1.01,0.05,
3.842,-0.33,-1.06,0.80,0.55,-1.01,0.05,
3.847,-0.33,-1.06,0.80,0.56,-0.97,0.06,
3.847,-0.33,-1.06,0.80,0.57,-0.92,0.06,
3.847,-0.14,-0.94,0.51,0.57,-0.92,0.06,
3.848,-0.14,-0.94,0.51,0.58,-0.87,0.07,
3.851,-0.14,-0.94,0.51,0.58,-0.80,0.08,
3.851,0.06,-0.90,0.09,0.58,-0.80,0.08,
3.853,0.06,-0.90,0.09,0.57,-0.73,0.08,
3.856,0.06,-0.90,0.09,0.56,-0.66,0.08,
3.856,0.19,-0.84,-0.28,0.56,-0.66,0.08,
3.858,0.19,-0.84,-0.28,0.54,-0.58,0.09,
3.861,0.19,-0.84,-0.28,0.52,-0.49,0.09,
3.861,0.30,-0.71,-0.59,0.52,-0.49,0.09,
3.863,0.30,-0.71,-0.59,0.49,-0.40,0.09,
3.866,0.43,-0.57,-0.92,0.49,-0.40,0.09,
3.866,0.43,-0.57,-0.92,0.45,-0.30,0.09,
3.868,0.43,-0.57,-0.92,0.41,-0.19,0.09,
3.871,0.43,-0.57,-0.92,0.37,-0.08,0.08,
3.871,0.56,-0.52,-1.26,0.37,-0.08,0.08,
3.873,0.56,-0.52,-1.26,0.32,0.03,0.08,
3.875,0.66,-0.47,-1.58,0.32,0.03,0.08,
3.875,0.66,-0.47,-1.58,0.27,0.14,0.07,
3.877,0.66,-0.47,-1.58,0.22,0.26,0.07,
3.88,0.71,-0.40,-1.83,0.22,0.26,0.07,
3.88,0.71,-0.40,-1.83,0.16,0.38,0.06,
3.883,0.71,-0.40,-1.83,0.10,0.49,0.06,
3.885,0.69,-0.29,-1.98,0.10,0.49,0.06,
3.885,0.69,-0.29,-1.98,0.05,0.61,0.05,
3.89,0.69,-0.29,-1.98,-0.01,0.72,0.04,
3.89,0.61,-0.19,-2.04,-0.01,0.72,0.04,
3.89,0.61,-0.19,-2.04,-0.06,0.82,0.04,
3.893,0.61,-0.19,-2.04,-0.12,0.92,0.03,
3.895,0.55,-0.06,-2.01,-0.12,0.92,0.03,
3.895,0.55,-0.06,-2.01,-0.17,1.02,0.03,
3.897,0.55,-0.06,-2.01,-0.22,1.10,0.02,
3.9,0.45,0.07,-1.90,-0.22,1.10,0.02,
3.9,0.45,0.07,-1.90,-0.26,1.18,0.02,
3.902,0.45,0.07,-1.90,-0.30,1.25,0.01,
3.904,0.45,0.07,-1.90,-0.34,1.32,0.01,
3.905,0.34,0.20,-1.70,-0.34,1.32,0.01,
3.907,0.34,0.20,-1.70,-0.38,1.37,0.01,
3.909,0.34,0.20,-1.70,-0.40,1.42,0.00,
3.91,0.20,0.29,-1.50,-0.40,1.42,0.00,
3.912,0.20,0.29,-1.50,-0.43,1.45,0.00,
3.914,0.01,0.34,-1.26,-0.43,1.45,0.00,
3.914,0.01,0.34,-1.26,-0.45,1.48,-0.00,
3.917,0.01,0.34,-1.26,-0.47,1.50,-0.00,
3.919,-0.21,0.40,-1.05,-0.47,1.50,-0.00,
3.92,-0.21,0.40,-1.05,-0.49,1.50,-0.00,
3.921,-0.21,0.40,-1.05,-0.50,1.50,-0.00,
3.924,-0.47,0.44,-0.84,-0.50,1.50,-0.00,
3.924,-0.47,0.44,-0.84,-0.51,1.48,-0.00,
3.926,-0.47,0.44,-0.84,-0.51,1.45,-0.01,
3.928,-0.74,0.44,-0.63,-0.51,1.45,-0.01,
3.929,-0.74,0.44,-0.63,-0.51,1.41,-0.01,
3.931,-0.74,0.44,-0.63,-0.51,1.35,-0.01,
3.933,-0.74,0.44,-0.63,-0.50,1.27,-0.01,
3.934,-1.03,0.38,-0.37,-0.50,1.27,-0.01,
3.936,-1.03,0.38,-0.37,-0.49,1.17,-0.01,
3.938,-1.39,0.32,0.00,-0.49,1.17,-0.01,
3.939,-1.39,0.32,0.00,-0.47,1.04,-0.01,
3.941,-1.39,0.32,0.00,-0.44,0.90,-0.01,
3.944,-1.76,0.29,0.52,-0.44,0.90,-0.01,
3.944,-1.76,0.29,0.52,-0.41,0.73,-0.01,
3.946,-1.76,0.29,0.52,-0.37,0.54,-0.00,
3.948,-1.76,0.29,0.52,-0.32,0.33,0.00,
3.948,-2.09,0.23,1.09,-0.32,0.33,0.00,
3.95,-2.09,0.23,1.09,-0.26,0.09,0.02,
3.954,-2.44,0.21,1.74,-0.26,0.09,0.02,
3.954,-2.44,0.21,1.74,-0.19,-0.17,0.03,
3.955,-2.44,0.21,1.74,-0.11,-0.44,0.05,
3.957,-2.76,0.31,2.43,-0.11,-0.44,0.05,
3.958,-2.76,0.31,2.43,-0.03,-0.73,0.07,
3.96,-2.76,0.31,2.43,0.07,-1.03,0.10,
3.962,-2.96,0.49,3.05,0.07,-1.03,0.10,
3.963,-2.96,0.49,3.05,0.16,-1.34,0.13,
3.965,-2.96,0.49,3.05,0.27,-1.65,0.15,
3.967,-3.06,0.69,3.52,0.27,-1.65,0.15,
3.968,-3.06,0.69,3.52,0.38,-1.95,0.18,
3.971,-3.06,0.69,3.52,0.49,-2.25,0.20,
3.973,-3.06,0.69,3.52,0.60,-2.53,0.22,
3.973,-3.07,0.80,3.72,0.60,-2.53,0.22,
3.975,-3.07,0.80,3.72,0.72,-2.79,0.24,
3.977,-3.00,0.80,3.66,0.72,-2.79,0.24,
3.977,-3.00,0.80,3.66,0.83,-3.04,0.26,
3.979,-3.00,0.80,3.66,0.94,-3.26,0.27,
3.982,-2.87,0.65,3.40,0.94,-3.26,0.27,
3.983,-2.87,0.65,3.40,1.05,-3.46,0.27,
3.985,-2.87,0.65,3.40,1.15,-3.63,0.27,
3.987,-2.64,0.46,3.00,1.15,-3.63,0.27,
3.988,-2.64,0.46,3.00,1.25,-3.78,0.27,
3.989,-2.64,0.46,3.00,1.34,-3.92,0.28,
3.991,-2.41,0.32,2.61,1.34,-3.92,0.28,
3.992,-2.41,0.32,2.61,1.42,-4.04,0.29,
3.994,-2.41,0.32,2.61,1.50,-4.14,0.29,
3.997,-2.41,0.32,2.61,1.56,-4.22,0.31,
3.997,-2.17,0.37,2.28,1.56,-4.22,0.31,
3.999,-2.17,0.37,2.28,1.62,-4.27,0.32,
4.002,-1.74,0.51,1.91,1.62,-4.27,0.32,
4.002,-1.74,0.51,1.91,1.66,-4.29,0.32,
4.007,-1.74,0.51,1.91,1.70,-4.29,0.32,
4.008,-1.74,0.51,1.91,1.72,-4.26,0.32,
4.009,-1.20,0.60,1.38,1.72,-4.26,0.32,
4.009,-1.20,0.60,1.38,1.72,-4.20,0.31,
4.011,-1.20,0.60,1.38,1.71,-4.12,0.30,
4.011,-0.61,0.59,0.67,1.71,-4.12,0.30,
4.013,-0.61,0.59,0.67,1.69,-4.01,0.29,
4.016,-0.61,0.59,0.67,1.65,-3.86,0.28,
4.016,-0.07,0.69,-0.12,1.65,-3.86,0.28,
4.019,-0.07,0.69,-0.12,1.60,-3.68,0.26,
4.021,0.44,0.74,-1.05,1.60,-3.68,0.26,
4.021,0.44,0.74,-1.05,1.53,-3.48,0.24,
4.023,0.44,0.74,-1.05,1.45,-3.24,0.23,
4.026,0.91,0.71,-2.02,1.45,-3.24,0.23,
4.026,0.91,0.71,-2.02,1.35,-2.97,0.21,
4.028,0.91,0.71,-2.02,1.24,-2.66,0.20,
4.03,1.36,0.64,-3.11,1.24,-2.66,0.20,
4.03,1.36,0.64,-3.11,1.12,-2.33,0.18,
4.033,1.36,0.64,-3.11,0.98,-1.99,0.16,
4.035,1.36,0.64,-3.11,0.84,-1.63,0.15,
4.036,1.72,0.55,-3.98,0.84,-1.63,0.15,
4.038,1.72,0.55,-3.98,0.70,-1.27,0.14,
4.041,1.72,0.55,-3.98,0.54,-0.90,0.14,
4.041,1.93,0.49,-4.53,0.54,-0.90,0.14,
4.042,1.93,0.49,-4.53,0.39,-0.54,0.13,
4.045,1.98,0.46,-4.85,0.39,-0.54,0.13,
4.045,1.98,0.46,-4.85,0.24,-0.17,0.13,
4.047,1.98,0.46,-4.85,0.08,0.18,0.13,
4.05,1.97,0.45,-4.87,0.08,0.18,0.13,
4.05,1.97,0.45,-4.87,-0.07,0.52,0.13,
4.052,1.97,0.45,-4.87,-0.22,0.85,0.13,
4.056,1.91,0.42,-4.63,-0.22,0.85,0.13,
4.056,1.91,0.42,-4.63,-0.36,1.16,0.12,
4.057,1.91,0.42,-4.63,-0.50,1.46,0.12,
4.059,1.76,0.39,-4.23,-0.50,1.46,0.12,
4.06,1.76,0.39,-4.23,-0.62,1.74,0.11,
4.062,1.76,0.39,-4.23,-0.74,2.00,0.10,
4.064,1.55,0.39,-3.65,-0.74,2.00,0.10,
4.064,1.55,0.39,-3.65,-0.85,2.26,0.08,
4.066,1.55,0.39,-3.65,-0.95,2.49,0.07,
4.069,1.55,0.39,-3.65,-1.04,2.71,0.06,
4.07,1.34,0.40,-3.11,-1.04,2.71,0.06,
4.073,1.34,0.40,-3.11,-1.12,2.92,0.04,
4.077,1.34,0.40,-3.11,-1.20,3.11,0.03,
4.077,1.13,0.40,-2.60,-1.20,3.11,0.03,
4.077,1.13,0.40,-2.60,-1.27,3.29,0.03,
4.079,0.93,0.32,-2.16,-1.27,3.29,0.03,
4.079,0.93,0.32,-2.16,-1.32,3.45,0.03,
4.081,0.93,0.32,-2.16,-1.37,3.61,0.03,
4.083,0.72,0.13,-1.87,-1.37,3.61,0.03,
4.083,0.72,0.13,-1.87,-1.41,3.76,0.04,
4.087,0.72,0.13,-1.87,-1.43,3.90,0.04,
4.088,0.46,-0.19,-1.64,-1.43,3.90,0.04,
4.089,0.46,-0.19,-1.64,-1.45,4.02,0.06,
4.091,0.46,-0.19,-1.64,-1.45,4.12,0.08,
4.093,0.46,-0.19,-1.64,-1.45,4.20,0.10,
4.094,0.12,-0.45,-1.34,-1.45,4.20,0.10,
4.096,0.12,-0.45,-1.34,-1.44,4.25,0.13,
4.099,-0.29,-0.64,-0.91,-1.44,4.25,0.13,
4.099,-0.29,-0.64,-0.91,-1.43,4.28,0.16,
4.101,-0.29,-0.64,-0.91,-1.40,4.26,0.20,
4.106,-0.76,-0.68,-0.34,-1.40,4.26,0.20,
4.106,-0.76,-0.68,-0.34,-1.37,4.21,0.24,
4.106,-0.76,-0.68,-0.34,-1.32,4.12,0.28,
4.109,-0.76,-0.68,-0.34,-1.27,3.99,0.31,
4.11,-1.21,-0.70,0.36,-1.27,3.99,0.31,
4.11,-1.21,-0.70,0.36,-1.21,3.81,0.35,
4.113,-1.59,-0.65,1.20,-1.21,3.81,0.35,
4.113,-1.59,-0.65,1.20,-1.13,3.60,0.39,
4.115,-1.59,-0.65,1.20,-1.04,3.34,0.43,
4.117,-1.79,-0.48,2.21,-1.04,3.34,0.43,
4.117,-1.79,-0.48,2.21,-0.93,3.04,0.47,
4.12,-1.79,-0.48,2.21,-0.81,2.72,0.50,
4.122,-1.90,-0.28,3.31,-0.81,2.72,0.50,
4.122,-1.90,-0.28,3.31,-0.67,2.37,0.52,
4.125,-1.90,-0.28,3.31,-0.54,2.01,0.54,
4.127,-1.90,-0.28,3.31,-0.39,1.63,0.55,
4.128,-1.89,0.03,4.09,-0.39,1.63,0.55,
4.13,-1.89,0.03,4.09,-0.24,1.26,0.55,
4.132,-1.77,0.33,4.56,-0.24,1.26,0.55,
4.133,-1.77,0.33,4.56,-0.09,0.88,0.54,
4.135,-1.77,0.33,4.56,0.06,0.50,0.53,
4.138,-1.77,0.33,4.56,0.21,0.14,0.51,
4.139,-1.63,0.52,4.67,0.21,0.14,0.51,
4.139,-1.63,0.52,4.67,0.35,-0.20,0.49,
4.142,-1.63,0.52,4.67,0.49,-0.53,0.46,
4.142,-1.43,0.58,4.43,0.49,-0.53,0.46,
4.145,-1.43,0.58,4.43,0.62,-0.83,0.43,
4.147,-1.24,0.54,3.95,0.62,-0.83,0.43,
4.147,-1.24,0.54,3.95,0.75,-1.11,0.40,
4.149,-1.24,0.54,3.95,0.86,-1.36,0.36,
4.152,-1.24,0.54,3.95,0.96,-1.59,0.33,
4.152,-1.14,0.53,3.24,0.96,-1.59,0.33,
4.154,-1.14,0.53,3.24,1.05,-1.78,0.31,
4.156,-1.13,0.54,2.40,1.05,-1.78,0.31,
4.156,-1.13,0.54,2.40,1.12,-1.95,0.29,
4.158,-1.13,0.54,2.40,1.17,-2.08,0.27,
4.161,-1.17,0.60,1.47,1.17,-2.08,0.27,
4.161,-1.17,0.60,1.47,1.22,-2.19,0.26,
4.163,-1.17,0.60,1.47,1.24,-2.27,0.26,
4.166,-1.15,0.74,0.57,1.24,-2.27,0.26,
4.166,-1.15,0.74,0.57,1.25,-2.32,0.27,
4.168,-1.15,0.74,0.57,1.24,-2.33,0.28,
4.171,-1.09,0.83,-0.41,1.24,-2.33,0.28,
4.171,-1.09,0.83,-0.41,1.22,-2.31,0.29,
4.174,-1.09,0.83,-0.41,1.19,-2.26,0.31,
4.175,-0.93,0.87,-1.43,1.19,-2.26,0.31,
4.176,-0.93,0.87,-1.43,1.14,-2.19,0.33,
4.178,-0.93,0.87,-1.43,1.09,-2.10,0.35,
4.18,-0.67,0.94,-2.13,1.09,-2.10,0.35,
4.181,-0.67,0.94,-2.13,1.02,-1.98,0.38,
4.183,-0.67,0.94,-2.13,0.95,-1.84,0.41,
4.185,-0.29,0.96,-2.73,0.95,-1.84,0.41,
4.185,-0.29,0.96,-2.73,0.87,-1.68,0.44,
4.191,-0.29,0.96,-2.73,0.78,-1.49,0.47,
4.191,-0.29,0.96,-2.73,0.68,-1.29,0.49,
4.191,0.21,0.90,-3.23,0.68,-1.29,0.49,
4.192,0.21,0.90,-3.23,0.58,-1.07,0.51,
4.195,0.76,0.83,-3.61,0.58,-1.07,0.51,
4.195,0.76,0.83,-3.61,0.48,-0.84,0.53,
4.197,0.76,0.83,-3.61,0.37,-0.60,0.54,
4.2,1.35,0.68,-3.89,0.37,-0.60,0.54,
4.2,1.35,0.68,-3.89,0.26,-0.34,0.54,
4.202,1.35,0.68,-3.89,0.15,-0.09,0.54,
4.207,1.35,0.68,-3.89,0.04,0.17,0.54,
4.207,1.88,0.51,-4.02,0.04,0.17,0.54,
4.207,1.88,0.51,-4.02,-0.07,0.43,0.53,
4.21,1.88,0.51,-4.02,-0.18,0.68,0.51,
4.21,2.27,0.32,-4.00,-0.18,0.68,0.51,
4.212,2.27,0.32,-4.00,-0.28,0.92,0.49,
4.214,2.51,0.17,-3.78,-0.28,0.92,0.49,
4.214,2.51,0.17,-3.78,-0.38,1.16,0.47,
4.217,2.51,0.17,-3.78,-0.47,1.39,0.45,
4.22,2.66,0.04,-3.45,-0.47,1.39,0.45,
4.221,2.66,0.04,-3.45,-0.56,1.61,0.43,
4.222,2.66,0.04,-3.45,-0.64,1.81,0.41,
4.224,2.66,0.04,-3.45,-0.72,2.01,0.38,
4.224,2.73,-0.01,-3.01,-0.72,2.01,0.38,
4.226,2.73,-0.01,-3.01,-0.78,2.19,0.36,
4.229,2.66,0.03,-2.50,-0.78,2.19,0.36,
4.23,2.66,0.03,-2.50,-0.83,2.36,0.34,
4.231,2.66,0.03,-2.50,-0.88,2.52,0.32,
4.234,2.56,0.08,-2.01,-0.88,2.52,0.32,
4.234,2.56,0.08,-2.01,-0.92,2.68,0.30,
4.237,2.56,0.08,-2.01,-0.95,2.82,0.28,
4.239,2.46,0.12,-1.54,-0.95,2.82,0.28,
4.239,2.46,0.12,-1.54,-0.97,2.95,0.27,
4.242,2.46,0.12,-1.54,-0.98,3.07,0.25,
4.244,2.32,0.13,-1.12,-0.98,3.07,0.25,
4.244,2.32,0.13,-1.12,-0.99,3.17,0.23,
4.246,2.32,0.13,-1.12,-0.99,3.27,0.22,
4.248,2.32,0.13,-1.12,-0.99,3.35,0.20,
4.249,2.15,0.16,-0.74,-0.99,3.35,0.20,
4.251,2.15,0.16,-0.74,-0.97,3.42,0.19,
4.253,2.15,0.16,-0.74,-0.95,3.47,0.18,
4.254,1.98,0.13,-0.38,-0.95,3.47,0.18,
4.256,1.98,0.13,-0.38,-0.93,3.51,0.17,
4.258,1.75,0.14,-0.02,-0.93,3.51,0.17,
4.258,1.75,0.14,-0.02,-0.91,3.54,0.16,
4.26,1.75,0.14,-0.02,-0.88,3.55,0.15,
4.263,1.75,0.14,-0.02,-0.84,3.55,0.15,
4.263,1.53,0.17,0.28,-0.84,3.55,0.15,
4.265,1.53,0.17,0.28,-0.80,3.53,0.15,
4.268,1.53,0.17,0.28,-0.76,3.50,0.15,
4.268,1.27,0.17,0.56,-0.76,3.50,0.15,
4.271,1.27,0.17,0.56,-0.72,3.46,0.15,
4.273,1.27,0.17,0.56,-0.67,3.40,0.14,
4.273,1.02,0.23,0.78,-0.67,3.40,0.14,
4.275,1.02,0.23,0.78,-0.62,3.33,0.14,
4.277,1.02,0.23,0.78,-0.57,3.25,0.14,
4.278,0.84,0.28,0.94,-0.57,3.25,0.14,
4.28,0.84,0.28,0.94,-0.52,3.16,0.13,
4.282,0.68,0.26,1.05,-0.52,3.16,0.13,
4.283,0.68,0.26,1.05,-0.46,3.06,0.12,
4.285,0.68,0.26,1.05,-0.40,2.93,0.10,
4.29,0.68,0.26,1.05,-0.33,2.79,0.09,
4.29,0.54,0.17,1.15,-0.33,2.79,0.09,
4.291,0.54,0.17,1.15,-0.26,2.62,0.07,
4.292,0.33,0.05,1.42,-0.26,2.62,0.07,
4.292,0.33,0.05,1.42,-0.18,2.43,0.05,
4.294,0.33,0.05,1.42,-0.10,2.21,0.03,
4.297,0.08,0.06,1.82,-0.10,2.21,0.03,
4.297,0.08,0.06,1.82,-0.02,1.98,0.01,
4.299,0.08,0.06,1.82,0.07,1.73,-0.00,
4.302,-0.21,0.15,2.19,0.07,1.73,-0.00,
4.302,-0.21,0.15,2.19,0.16,1.46,-0.02,
4.305,-0.21,0.15,2.19,0.25,1.18,-0.05,
4.307,-0.47,0.31,2.56,0.25,1.18,-0.05,
4.307,-0.47,0.31,2.56,0.34,0.90,-0.06,
4.309,-0.47,0.31,2.56,0.44,0.61,-0.08,
4.312,-0.47,0.31,2.56,0.53,0.33,-0.10,
4.312,-0.70,0.48,2.75,0.53,0.33,-0.10,
4.314,-0.70,0.48,2.75,0.62,0.05,-0.12,
4.316,-0.70,0.48,2.75,0.72,-0.21,-0.13,
4.317,-0.87,0.62,2.74,0.72,-0.21,-0.13,
4.32,-0.87,0.62,2.74,0.81,-0.47,-0.14,
4.321,-0.87,0.62,2.74,0.90,-0.71,-0.15,
4.321,-1.04,0.66,2.52,0.90,-0.71,-0.15,
4.324,-1.04,0.66,2.52,0.98,-0.94,-0.16,
4.326,-1.17,0.67,2.15,0.98,-0.94,-0.16,
4.326,-1.17,0.67,2.15,1.06,-1.15,-0.16,
4.328,-1.17,0.67,2.15,1.13,-1.36,-0.16,
4.331,-1.17,0.67,2.15,1.20,-1.53,-0.15,
4.331,-1.29,0.70,1.73,1.20,-1.53,-0.15,
4.333,-1.29,0.70,1.73,1.26,-1.69,-0.15,
4.336,-1.35,0.70,1.23,1.26,-1.69,-0.15,
4.336,-1.35,0.70,1.23,1.31,-1.84,-0.14,
4.338,-1.35,0.70,1.23,1.35,-1.96,-0.14,
4.34,-1.35,0.70,1.23,1.39,-2.07,-0.13,
4.341,-1.39,0.69,0.73,1.39,-2.07,-0.13,
4.343,-1.39,0.69,0.73,1.42,-2.16,-0.12,
4.345,-1.35,0.61,0.26,1.42,-2.16,-0.12,
4.345,-1.35,0.61,0.26,1.44,-2.24,-0.11,
4.347,-1.35,0.61,0.26,1.45,-2.30,-0.10,
4.35,-1.35,0.61,0.26,1.46,-2.35,-0.09,
4.351,-1.28,0.50,-0.19,1.46,-2.35,-0.09,
4.353,-1.28,0.50,-0.19,1.46,-2.38,-0.08,
4.355,-1.11,0.38,-0.60,1.46,-2.38,-0.08,
4.356,-1.11,0.38,-0.60,1.45,-2.40,-0.06,
4.357,-1.11,0.38,-0.60,1.44,-2.40,-0.05,
4.36,-1.11,0.38,-0.60,1.42,-2.38,-0.04,
4.36,-0.86,0.22,-1.03,1.42,-2.38,-0.04,
4.362,-0.86,0.22,-1.03,1.39,-2.36,-0.03,
4.365,-0.49,-0.01,-1.44,1.39,-2.36,-0.03,
4.365,-0.49,-0.01,-1.44,1.36,-2.31,-0.01,
4.367,-0.49,-0.01,-1.44,1.32,-2.26,-0.00,
4.37,-0.49,-0.01,-1.44,1.28,-2.19,0.01,
4.371,-0.02,-0.31,-1.83,1.28,-2.19,0.01,
4.373,-0.02,-0.31,-1.83,1.23,-2.11,0.02,
4.374,-0.02,-0.31,-1.83,1.17,-2.03,0.02,
4.375,0.44,-0.58,-2.15,1.17,-2.03,0.02,
4.377,0.44,-0.58,-2.15,1.11,-1.94,0.03,
4.379,0.91,-0.85,-2.39,1.11,-1.94,0.03,
4.379,0.91,-0.85,-2.39,1.04,-1.84,0.04,
4.382,0.91,-0.85,-2.39,0.97,-1.74,0.05,
4.384,0.91,-0.85,-2.39,0.90,-1.63,0.06,
4.384,1.27,-1.02,-2.49,0.90,-1.63,0.06,
4.387,1.27,-1.02,-2.49,0.83,-1.53,0.07,
4.389,1.61,-1.12,-2.54,0.83,-1.53,0.07,
4.389,1.61,-1.12,-2.54,0.76,-1.41,0.07,
4.391,1.61,-1.12,-2.54,0.68,-1.30,0.08,
4.394,1.61,-1.12,-2.54,0.61,-1.18,0.08,
4.394,1.91,-1.24,-2.50,0.61,-1.18,0.08,
4.396,1.91,-1.24,-2.50,0.54,-1.07,0.08,
4.399,2.17,-1.25,-2.40,0.54,-1.07,0.08,
4.399,2.17,-1.25,-2.40,0.48,-0.95,0.08,
4.401,2.17,-1.25,-2.40,0.41,-0.82,0.07,
4.407,2.40,-1.27,-2.27,0.41,-0.82,0.07,
4.407,2.40,-1.27,-2.27,0.36,-0.71,0.07,
4.408,2.40,-1.27,-2.27,0.30,-0.59,0.06,
4.409,2.40,-1.27,-2.27,0.25,-0.47,0.05,
4.409,2.58,-1.23,-2.07,0.25,-0.47,0.05,
4.411,2.58,-1.23,-2.07,0.21,-0.36,0.04,
4.413,2.58,-1.23,-2.07,0.17,-0.25,0.03,
4.413,2.70,-1.14,-1.83,0.17,-0.25,0.03,
4.415,2.70,-1.14,-1.83,0.13,-0.14,0.01,
4.418,2.78,-1.09,-1.55,0.13,-0.14,0.01,
4.418,2.78,-1.09,-1.55,0.10,-0.04,-0.01,
4.421,2.78,-1.09,-1.55,0.07,0.05,-0.02,
4.423,2.84,-1.09,-1.25,0.07,0.05,-0.02,
4.423,2.84,-1.09,-1.25,0.05,0.14,-0.05,
4.425,2.84,-1.09,-1.25,0.04,0.23,-0.07,
4.428,2.84,-1.09,-1.25,0.03,0.30,-0.09,
4.428,2.80,-1.09,-0.95,0.03,0.30,-0.09,
4.43,2.80,-1.09,-0.95,0.03,0.38,-0.11,
4.433,2.80,-1.09,-0.95,0.04,0.44,-0.13,
4.433,2.69,-1.16,-0.70,0.04,0.44,-0.13,
4.435,2.69,-1.16,-0.70,0.05,0.50,-0.16,
4.438,2.49,-1.27,-0.49,0.05,0.50,-0.16,
4.438,2.49,-1.27,-0.49,0.07,0.54,-0.18,
4.44,2.49,-1.27,-0.49,0.10,0.57,-0.20,
4.442,2.49,-1.27,-0.49,0.13,0.58,-0.22,
4.443,2.15,-1.40,-0.28,0.13,0.58,-0.22,
4.445,2.15,-1.40,-0.28,0.16,0.57,-0.23,
4.447,2.15,-1.40,-0.28,0.19,0.54,-0.25,
4.447,1.73,-1.44,0.00,0.19,0.54,-0.25,
4.449,1.73,-1.44,0.00,0.23,0.50,-0.27,
4.452,1.73,-1.44,0.00,0.27,0.43,-0.28,
4.452,1.26,-1.42,0.26,0.27,0.43,-0.28,
4.454,1.26,-1.42,0.26,0.32,0.35,-0.29,
4.457,0.81,-1.41,0.58,0.32,0.35,-0.29,
4.457,0.81,-1.41,0.58,0.36,0.25,-0.30,
4.459,0.81,-1.41,0.58,0.41,0.14,-0.30,
4.462,0.81,-1.41,0.58,0.47,0.01,-0.30,
4.462,0.35,-1.34,0.89,0.47,0.01,-0.30,
4.464,0.35,-1.34,0.89,0.52,-0.13,-0.29,
4.467,-0.13,-1.26,1.15,0.52,-0.13,-0.29,
4.467,-0.13,-1.26,1.15,0.57,-0.27,-0.28,
4.47,-0.13,-1.26,1.15,0.63,-0.42,-0.27,
4.472,-0.60,-1.11,1.33,0.63,-0.42,-0.27,
4.472,-0.60,-1.11,1.33,0.69,-0.58,-0.25,
4.474,-0.60,-1.11,1.33,0.75,-0.73,-0.23,
4.477,-1.07,-0.92,1.37,0.75,-0.73,-0.23,
4.477,-1.07,-0.92,1.37,0.81,-0.88,-0.20,
4.479,-1.07,-0.92,1.37,0.87,-1.02,-0.18,
4.482,-1.07,-0.92,1.37,0.93,-1.16,-0.15,
4.482,-1.46,-0.74,1.30,0.93,-1.16,-0.15,
4.483,-1.46,-0.74,1.30,0.98,-1.30,-0.12,
4.486,-1.46,-0.74,1.30,1.03,-1.43,-0.09,
4.487,-1.75,-0.55,1.10,1.03,-1.43,-0.09,
4.488,-1.75,-0.55,1.10,1.08,-1.55,-0.06,
4.49,-1.95,-0.42,0.87,1.08,-1.55,-0.06,
4.491,-1.95,-0.42,0.87,1.13,-1.65,-0.03,
4.493,-1.95,-0.42,0.87,1.17,-1.75,0.00,
4.495,-2.04,-0.23,0.58,1.17,-1.75,0.00,
4.496,-2.04,-0.23,0.58,1.20,-1.84,0.04,
4.498,-2.04,-0.23,0.58,1.23,-1.92,0.07,
4.5,-2.09,0.03,0.25,1.23,-1.92,0.07,
4.501,-2.09,0.03,0.25,1.25,-1.98,0.10,
4.504,-2.09,0.03,0.25,1.26,-2.02,0.13,
4.505,-2.00,0.36,-0.13,1.26,-2.02,0.13,
4.506,-2.00,0.36,-0.13,1.27,-2.06,0.16,
4.508,-2.00,0.36,-0.13,1.26,-2.07,0.19,
4.51,-2.00,0.36,-0.13,1.25,-2.08,0.21,
4.51,-1.80,0.67,-0.40,1.25,-2.08,0.21,
4.512,-1.80,0.67,-0.40,1.23,-2.07,0.22,
4.515,-1.48,0.91,-0.78,1.23,-2.07,0.22,
4.515,-1.48,0.91,-0.78,1.19,-2.04,0.23,
4.517,-1.48,0.91,-0.78,1.15,-1.98,0.23,
4.52,-1.08,0.96,-1.33,1.15,-1.98,0.23,
4.52,-1.08,0.96,-1.33,1.11,-1.91,0.22,
4.522,-1.08,0.96,-1.33,1.05,-1.82,0.21,
4.525,-0.63,0.97,-1.91,1.05,-1.82,0.21,
4.525,-0.63,0.97,-1.91,0.99,-1.72,0.20,
4.527,-0.63,0.97,-1.91,0.91,-1.59,0.18,
4.529,-0.63,0.97,-1.91,0.84,-1.46,0.16,
4.53,-0.17,0.99,-2.42,0.84,-1.46,0.16,
4.532,-0.17,0.99,-2.42,0.75,-1.30,0.14,
4.534,-0.17,0.99,-2.42,0.66,-1.14,0.11,
4.535,0.20,1.09,-2.89,0.66,-1.14,0.11,
4.537,0.20,1.09,-2.89,0.56,-0.96,0.09,
4.539,0.50,1.25,-3.30,0.56,-0.96,0.09,
4.54,0.50,1.25,-3.30,0.45,-0.77,0.07,
4.542,0.50,1.25,-3.30,0.34,-0.56,0.04,
4.544,0.79,1.41,-3.64,0.34,-0.56,0.04,
4.544,0.79,1.41,-3.64,0.23,-0.34,0.02,
4.548,0.79,1.41,-3.64,0.11,-0.11,-0.01,
4.549,1.02,1.45,-4.00,0.11,-0.11,-0.01,
4.549,1.02,1.45,-4.00,-0.01,0.14,-0.05,
4.551,1.02,1.45,-4.00,-0.13,0.38,-0.08,
4.554,1.02,1.45,-4.00,-0.25,0.63,-0.12,
4.555,1.25,1.36,-4.25,-0.25,0.63,-0.12,
4.556,1.25,1.36,-4.25,-0.37,0.88,-0.16,
4.559,1.25,1.36,-4.25,-0.49,1.12,-0.20,
4.559,1.40,1.13,-4.27,-0.49,1.12,-0.20,
4.561,1.40,1.13,-4.27,-0.61,1.36,-0.24,
4.563,1.40,1.13,-4.27,-0.72,1.58,-0.27,
4.564,1.45,0.85,-4.16,-0.72,1.58,-0.27,
4.566,1.45,0.85,-4.16,-0.83,1.79,-0.32,
4.568,1.45,0.85,-4.16,-0.93,2.00,-0.35,
4.569,1.40,0.61,-3.88,-0.93,2.00,-0.35,
4.571,1.40,0.61,-3.88,-1.03,2.18,-0.39,
4.573,1.40,0.61,-3.88,-1.11,2.36,-0.43,
4.574,1.29,0.38,-3.44,-1.11,2.36,-0.43,
4.576,1.29,0.38,-3.44,-1.20,2.52,-0.47,
4.578,1.29,0.38,-3.44,-1.27,2.67,-0.50,
4.578,1.07,0.20,-2.94,-1.27,2.67,-0.50,
4.58,1.07,0.20,-2.94,-1.34,2.80,-0.53,
4.583,1.07,0.20,-2.94,-1.39,2.92,-0.56,
4.583,0.80,0.03,-2.43,-1.39,2.92,-0.56,
4.59,0.80,0.03,-2.43,-1.43,3.01,-0.58,
4.59,0.41,-0.15,-1.86,-1.43,3.01,-0.58,
4.59,0.41,-0.15,-1.86,-1.47,3.09,-0.60,
4.591,0.41,-0.15,-1.86,-1.48,3.14,-0.62,
4.593,0.41,-0.15,-1.86,-1.49,3.18,-0.63,
4.593,-0.01,-0.30,-1.20,-1.49,3.18,-0.63,
4.595,-0.01,-0.30,-1.20,-1.49,3.19,-0.64,
4.598,-0.46,-0.45,-0.54,-1.49,3.19,-0.64,
4.598,-0.46,-0.45,-0.54,-1.48,3.18,-0.65,
4.6,-0.46,-0.45,-0.54,-1.46,3.15,-0.65,
4.602,-0.46,-0.45,-0.54,-1.42,3.09,-0.64,
4.602,-1.00,-0.61,0.13,-1.42,3.09,-0.64,
4.605,-1.00,-0.61,0.13,-1.37,2.98,-0.63,
4.607,-1.53,-0.76,0.82,-1.37,2.98,-0.63,
4.607,-1.53,-0.76,0.82,-1.31,2.85,-0.60,
4.609,-1.53,-0.76,0.82,-1.24,2.68,-0.57,
4.612,-1.53,-0.76,0.82,-1.17,2.49,-0.53,
4.612,-2.11,-0.79,1.71,-1.17,2.49,-0.53,
4.614,-2.11,-0.79,1.71,-1.08,2.29,-0.49,
4.617,-2.64,-0.66,2.29,-1.08,2.29,-0.49,
4.617,-2.64,-0.66,2.29,-1.00,2.06,-0.44,
4.62,-2.64,-0.66,2.29,-0.90,1.81,-0.39,
4.622,-3.05,-0.56,2.85,-0.90,1.81,-0.39,
4.622,-3.05,-0.56,2.85,-0.80,1.54,-0.34,
4.624,-3.05,-0.56,2.85,-0.69,1.26,-0.29,
4.627,-3.05,-0.56,2.85,-0.58,0.97,-0.24,
4.627,-3.34,-0.50,3.29,-0.58,0.97,-0.24,
4.629,-3.34,-0.50,3.29,-0.47,0.68,-0.19,
4.631,-3.49,-0.46,3.59,-0.47,0.68,-0.19,
4.632,-3.49,-0.46,3.59,-0.36,0.37,-0.15,
4.634,-3.49,-0.46,3.59,-0.24,0.07,-0.11,
4.637,-3.49,-0.46,3.59,-0.12,-0.24,-0.08,
4.638,-3.52,-0.40,3.81,-0.12,-0.24,-0.08,
4.639,-3.52,-0.40,3.81,-0.00,-0.55,-0.04,
4.642,-3.49,-0.33,3.92,-0.00,-0.55,-0.04,
4.642,-3.49,-0.33,3.92,0.12,-0.85,-0.01,
4.644,-3.49,-0.33,3.92,0.23,-1.14,0.01,
4.646,-3.41,-0.25,3.93,0.23,-1.14,0.01,
4.646,-3.41,-0.25,3.93,0.35,-1.42,0.04,
4.648,-3.41,-0.25,3.93,0.46,-1.70,0.06,
4.651,-3.41,-0.25,3.93,0.57,-1.96,0.07,
4.651,-3.25,-0.20,3.85,0.57,-1.96,0.07,
4.653,-3.25,-0.20,3.85,0.67,-2.20,0.08,
4.655,-3.25,-0.20,3.85,0.77,-2.42,0.09,
4.656,-3.09,-0.21,3.58,0.77,-2.42,0.09,
4.658,-3.09,-0.21,3.58,0.86,-2.62,0.10,
4.661,-3.09,-0.21,3.58,0.94,-2.80,0.11,
4.663,-2.86,-0.22,3.24,0.94,-2.80,0.11,
4.664,-2.86,-0.22,3.24,1.02,-2.96,0.13,
4.665,-2.86,-0.22,3.24,1.09,-3.10,0.14,
4.666,-2.67,-0.20,2.90,1.09,-3.10,0.14,
4.667,-2.67,-0.20,2.90,1.16,-3.22,0.15,
4.67,-2.67,-0.20,2.90,1.21,-3.33,0.16,
4.67,-2.44,-0.19,2.53,1.21,-3.33,0.16,
4.673,-2.44,-0.19,2.53,1.26,-3.41,0.18,
4.675,-2.44,-0.19,2.53,1.30,-3.47,0.19,
4.675,-2.20,-0.14,2.17,1.30,-3.47,0.19,
4.677,-2.20,-0.14,2.17,1.32,-3.51,0.20,
4.68,-2.20,-0.14,2.17,1.34,-3.53,0.21,
4.68,-1.94,-0.04,1.72,1.34,-3.53,0.21,
4.682,-1.94,-0.04,1.72,1.35,-3.51,0.22,
4.685,-1.94,-0.04,1.72,1.35,-3.47,0.22,
4.685,-1.55,0.09,1.15,1.35,-3.47,0.22,
4.69,-1.55,0.09,1.15,1.33,-3.39,0.22,
4.691,-1.55,0.09,1.15,1.31,-3.29,0.22,
4.691,-1.07,0.07,0.41,1.31,-3.29,0.22,
4.692,-1.07,0.07,0.41,1.27,-3.16,0.21,
4.695,-1.07,0.07,0.41,1.22,-3.00,0.21,
4.695,-0.57,-0.02,-0.39,1.22,-3.00,0.21,
4.696,-0.57,-0.02,-0.39,1.17,-2.83,0.21,
4.699,-0.57,-0.02,-0.39,1.10,-2.64,0.21,
4.699,-0.09,-0.15,-1.15,1.10,-2.64,0.21,
4.702,-0.09,-0.15,-1.15,1.03,-2.43,0.20,
4.704,-0.09,-0.15,-1.15,0.95,-2.22,0.20,
4.704,0.29,-0.26,-1.79,0.95,-2.22,0.20,
4.707,0.29,-0.26,-1.79,0.86,-1.98,0.20,
4.709,0.68,-0.32,-2.28,0.86,-1.98,0.20,
4.709,0.68,-0.32,-2.28,0.77,-1.73,0.20,
4.711,0.68,-0.32,-2.28,0.67,-1.48,0.19,
4.713,0.99,-0.45,-2.70,0.67,-1.48,0.19,
4.713,0.99,-0.45,-2.70,0.57,-1.22,0.19,
4.716,0.99,-0.45,-2.70,0.46,-0.96,0.18,
4.718,0.99,-0.45,-2.70,0.35,-0.70,0.18,
4.719,1.23,-0.60,-2.97,0.35,-0.70,0.18,
4.721,1.23,-0.60,-2.97,0.25,-0.45,0.17,
4.723,1.23,-0.60,-2.97,0.14,-0.20,0.17,
4.724,1.40,-0.74,-2.99,0.14,-0.20,0.17,
4.725,1.40,-0.74,-2.99,0.04,0.04,0.17,
4.728,1.48,-0.85,-2.84,0.04,0.04,0.17,
4.729,1.48,-0.85,-2.84,-0.06,0.28,0.17,
4.73,1.48,-0.85,-2.84,-0.16,0.50,0.17,
4.733,1.47,-0.89,-2.58,-0.16,0.50,0.17,
4.733,1.47,-0.89,-2.58,-0.25,0.72,0.17,
4.736,1.47,-0.89,-2.58,-0.33,0.92,0.16,
4.741,1.47,-0.89,-2.58,-0.41,1.11,0.16,
4.741,1.37,-0.88,-2.23,-0.41,1.11,0.16,
4.741,1.37,-0.88,-2.23,-0.48,1.28,0.15,
4.742,1.25,-0.88,-1.78,-0.48,1.28,0.15,
4.743,1.25,-0.88,-1.78,-0.55,1.44,0.15,
4.745,1.25,-0.88,-1.78,-0.61,1.59,0.14,
4.747,1.25,-0.88,-1.78,-0.66,1.72,0.13,
4.748,1.13,-0.85,-1.29,-0.66,1.72,0.13,
4.75,1.13,-0.85,-1.29,-0.70,1.85,0.12,
4.752,1.05,-0.89,-0.80,-0.70,1.85,0.12,
4.753,1.05,-0.89,-0.80,-0.74,1.96,0.11,
4.755,1.05,-0.89,-0.80,-0.77,2.06,0.10,
4.757,0.96,-0.94,-0.37,-0.77,2.06,0.10,
4.757,0.96,-0.94,-0.37,-0.79,2.15,0.09,
4.759,0.96,-0.94,-0.37,-0.80,2.22,0.09,
4.762,0.96,-0.94,-0.37,-0.81,2.28,0.08,
4.762,0.84,-1.00,0.06,-0.81,2.28,0.08,
4.764,0.84,-1.00,0.06,-0.81,2.32,0.08,
4.767,0.68,-1.08,0.51,-0.81,2.32,0.08,
4.768,0.68,-1.08,0.51,-0.80,2.34,0.08,
4.769,0.68,-1.08,0.51,-0.79,2.33,0.09,
4.772,0.68,-1.08,0.51,-0.77,2.31,0.09,
4.772,0.46,-1.19,0.98,-0.77,2.31,0.09,
4.774,0.46,-1.19,0.98,-0.74,2.26,0.09,
4.776,0.15,-1.33,1.44,-0.74,2.26,0.09,
4.777,0.15,-1.33,1.44,-0.70,2.19,0.10,
4.779,0.15,-1.33,1.44,-0.66,2.09,0.11,
4.781,-0.15,-1.45,1.91,-0.66,2.09,0.11,
4.781,-0.15,-1.45,1.91,-0.60,1.96,0.12,
4.784,-0.15,-1.45,1.91,-0.54,1.79,0.14,
4.787,-0.47,-1.54,2.51,-0.54,1.79,0.14,
4.787,-0.47,-1.54,2.51,-0.46,1.59,0.15,
4.788,-0.47,-1.54,2.51,-0.37,1.38,0.17,
4.791,-0.75,-1.47,3.27,-0.37,1.38,0.17,
4.791,-0.75,-1.47,3.27,-0.28,1.15,0.19,
4.793,-0.75,-1.47,3.27,-0.18,0.90,0.20,
4.796,-0.75,-1.47,3.27,-0.07,0.64,0.22,
4.796,-0.91,-1.28,3.76,-0.07,0.64,0.22,
4.798,-0.91,-1.28,3.76,0.04,0.37,0.23,
4.801,-0.91,-1.28,3.76,0.16,0.08,0.24,
4.801,-0.97,-1.08,4.21,0.16,0.08,0.24,
4.803,-0.97,-1.08,4.21,0.29,-0.21,0.25,
4.805,-0.91,-0.88,4.49,0.29,-0.21,0.25,
4.806,-0.91,-0.88,4.49,0.42,-0.51,0.25,
4.808,-0.91,-0.88,4.49,0.55,-0.80,0.25,
4.81,-0.78,-0.74,4.61,0.55,-0.80,0.25,
4.81,-0.78,-0.74,4.61,0.68,-1.09,0.24,
4.813,-0.78,-0.74,4.61,0.81,-1.38,0.23,
4.815,-0.63,-0.71,4.53,0.81,-1.38,0.23,
4.815,-0.63,-0.71,4.53,0.93,-1.66,0.21,
4.818,-0.63,-0.71,4.53,1.05,-1.93,0.19,
4.821,-0.63,-0.71,4.53,1.17,-2.18,0.16,
4.821,-0.47,-0.73,4.30,1.17,-2.18,0.16,
4.823,-0.47,-0.73,4.30,1.27,-2.42,0.13,
4.825,-0.42,-0.76,3.91,1.27,-2.42,0.13,
4.825,-0.42,-0.76,3.91,1.37,-2.65,0.10,
4.827,-0.42,-0.76,3.91,1.46,-2.85,0.06,
4.83,-0.42,-0.76,3.91,1.54,-3.04,0.03,
4.83,-0.37,-0.79,3.39,1.54,-3.04,0.03,
4.832,-0.37,-0.79,3.39,1.61,-3.20,0.00,
4.835,-0.37,-0.79,2.81,1.61,-3.20,0.00,
4.835,-0.37,-0.79,2.81,1.67,-3.34,-0.02,
4.837,-0.37,-0.79,2.81,1.72,-3.46,-0.04,
4.84,-0.34,-0.74,2.14,1.72,-3.46,-0.04,
4.84,-0.34,-0.74,2.14,1.76,-3.55,-0.06,
4.842,-0.34,-0.74,2.14,1.79,-3.61,-0.07,
4.844,-0.29,-0.67,1.43,1.79,-3.61,-0.07,
4.844,-0.29,-0.67,1.43,1.81,-3.65,-0.09,
4.847,-0.29,-0.67,1.43,1.81,-3.67,-0.09,
4.849,-0.20,-0.57,0.82,1.81,-3.67,-0.09,
4.849,-0.20,-0.57,0.82,1.80,-3.67,-0.10,
4.852,-0.20,-0.57,0.82,1.78,-3.65,-0.10,
4.855,-0.20,-0.57,0.82,1.75,-3.60,-0.10,
4.855,-0.17,-0.41,0.17,1.75,-3.60,-0.10,
4.857,-0.17,-0.41,0.17,1.71,-3.53,-0.09,
4.859,-0.17,-0.41,0.17,1.65,-3.43,-0.08,
